,index,n_trial,rt,stim_selected,correct_stim,correct,feedback,feedback_congruent,correct_count,trial_till_correct,reversal,block_no,participant_no,timed_out,block_type,time_taken,criteria
0,0,1.0,2817.0,1,1,True,correct,True,1.0,1.0,0.0,2.0,1.0,0,Disgust,7.49205,0
1,0,2.0,1656.0,1,1,True,correct,True,2.0,2.0,0.0,2.0,1.0,0,Disgust,7.49205,0
2,0,3.0,759.0,1,1,True,correct,True,3.0,3.0,0.0,2.0,1.0,0,Disgust,7.49205,0
3,0,4.0,669.0,1,1,True,correct,True,4.0,4.0,0.0,2.0,1.0,0,Disgust,7.49205,0
4,0,5.0,653.0,1,1,True,correct,True,5.0,5.0,0.0,2.0,1.0,0,Disgust,7.49205,0
5,0,6.0,717.0,1,0,False,incorrect,True,0.0,1.0,1.0,2.0,1.0,0,Disgust,7.49205,0
6,0,7.0,1686.0,0,0,True,correct,True,1.0,2.0,1.0,2.0,1.0,0,Disgust,7.49205,0
7,0,8.0,652.0,0,0,True,correct,True,2.0,3.0,1.0,2.0,1.0,0,Disgust,7.49205,0
8,0,9.0,701.0,0,0,True,incorrect,False,3.0,4.0,1.0,2.0,1.0,0,Disgust,7.49205,0
9,0,10.0,725.0,1,0,False,incorrect,True,0.0,5.0,1.0,2.0,1.0,0,Disgust,7.49205,0
10,0,11.0,693.0,1,0,False,incorrect,True,0.0,6.0,1.0,2.0,1.0,0,Disgust,7.49205,0
11,0,12.0,971.0,0,0,True,incorrect,False,1.0,7.0,1.0,2.0,1.0,0,Disgust,7.49205,0
12,0,13.0,734.0,0,0,True,correct,True,2.0,8.0,1.0,2.0,1.0,0,Disgust,7.49205,0
13,0,14.0,1814.0,0,0,True,correct,True,3.0,9.0,1.0,2.0,1.0,0,Disgust,7.49205,0
14,0,15.0,951.0,0,0,True,correct,True,4.0,10.0,1.0,2.0,1.0,0,Disgust,7.49205,0
15,0,16.0,995.0,0,0,True,correct,True,5.0,11.0,1.0,2.0,1.0,0,Disgust,7.49205,0
16,0,17.0,837.0,0,1,False,incorrect,True,0.0,1.0,2.0,2.0,1.0,0,Disgust,7.49205,0
17,0,18.0,879.0,1,1,True,correct,True,1.0,2.0,2.0,2.0,1.0,0,Disgust,7.49205,0
18,0,19.0,1218.0,1,1,True,correct,True,2.0,3.0,2.0,2.0,1.0,0,Disgust,7.49205,0
19,0,20.0,1191.0,1,1,True,correct,True,3.0,4.0,2.0,2.0,1.0,0,Disgust,7.49205,0
20,0,21.0,760.0,1,1,True,correct,True,4.0,5.0,2.0,2.0,1.0,0,Disgust,7.49205,0
21,0,22.0,826.0,1,1,True,correct,True,5.0,6.0,2.0,2.0,1.0,0,Disgust,7.49205,0
22,0,23.0,698.0,1,0,False,incorrect,True,0.0,1.0,3.0,2.0,1.0,0,Disgust,7.49205,0
23,0,24.0,569.0,0,0,True,correct,True,1.0,2.0,3.0,2.0,1.0,0,Disgust,7.49205,0
24,0,25.0,556.0,0,0,True,correct,True,2.0,3.0,3.0,2.0,1.0,0,Disgust,7.49205,0
25,0,26.0,1339.0,1,0,False,correct,False,0.0,4.0,3.0,2.0,1.0,0,Disgust,7.49205,0
26,0,27.0,545.0,1,0,False,incorrect,True,0.0,5.0,3.0,2.0,1.0,0,Disgust,7.49205,0
27,0,28.0,1007.0,0,0,True,correct,True,1.0,6.0,3.0,2.0,1.0,0,Disgust,7.49205,0
28,0,29.0,789.0,1,0,False,incorrect,True,0.0,7.0,3.0,2.0,1.0,0,Disgust,7.49205,0
29,0,30.0,721.0,0,0,True,correct,True,1.0,8.0,3.0,2.0,1.0,0,Disgust,7.49205,0
30,0,31.0,596.0,0,0,True,incorrect,False,2.0,9.0,3.0,2.0,1.0,0,Disgust,7.49205,0
31,0,32.0,574.0,1,0,False,incorrect,True,0.0,10.0,3.0,2.0,1.0,0,Disgust,7.49205,0
32,0,33.0,1217.0,1,0,False,incorrect,True,0.0,11.0,3.0,2.0,1.0,0,Disgust,7.49205,0
33,0,34.0,739.0,0,0,True,correct,True,1.0,12.0,3.0,2.0,1.0,0,Disgust,7.49205,0
34,0,35.0,825.0,0,0,True,correct,True,2.0,13.0,3.0,2.0,1.0,0,Disgust,7.49205,0
35,0,36.0,1684.0,1,0,False,correct,False,0.0,14.0,3.0,2.0,1.0,0,Disgust,7.49205,0
36,0,37.0,679.0,1,0,False,incorrect,True,0.0,15.0,3.0,2.0,1.0,0,Disgust,7.49205,0
37,0,38.0,822.0,0,0,True,correct,True,1.0,16.0,3.0,2.0,1.0,0,Disgust,7.49205,0
38,0,39.0,681.0,0,0,True,incorrect,False,2.0,17.0,3.0,2.0,1.0,0,Disgust,7.49205,0
39,0,40.0,867.0,1,0,False,incorrect,True,0.0,18.0,3.0,2.0,1.0,0,Disgust,7.49205,0
40,0,41.0,592.0,0,0,True,correct,True,1.0,19.0,3.0,2.0,1.0,0,Disgust,7.49205,0
41,0,42.0,700.0,1,0,False,correct,False,0.0,20.0,3.0,2.0,1.0,0,Disgust,7.49205,0
42,0,43.0,1150.0,0,0,True,correct,True,1.0,21.0,3.0,2.0,1.0,0,Disgust,7.49205,0
43,0,44.0,1167.0,1,0,False,incorrect,True,0.0,22.0,3.0,2.0,1.0,0,Disgust,7.49205,0
44,0,45.0,1156.0,1,0,False,incorrect,True,0.0,23.0,3.0,2.0,1.0,0,Disgust,7.49205,0
45,0,46.0,579.0,0,0,True,correct,True,1.0,24.0,3.0,2.0,1.0,0,Disgust,7.49205,0
46,0,47.0,584.0,0,0,True,correct,True,2.0,25.0,3.0,2.0,1.0,0,Disgust,7.49205,0
47,0,48.0,650.0,0,0,True,correct,True,3.0,26.0,3.0,2.0,1.0,0,Disgust,7.49205,0
48,0,49.0,608.0,0,0,True,correct,True,4.0,27.0,3.0,2.0,1.0,0,Disgust,7.49205,0
49,0,50.0,728.0,0,0,True,correct,True,5.0,28.0,3.0,2.0,1.0,0,Disgust,7.49205,0
50,0,51.0,721.0,0,1,False,incorrect,True,0.0,1.0,4.0,2.0,1.0,0,Disgust,7.49205,0
51,0,52.0,948.0,1,1,True,correct,True,1.0,2.0,4.0,2.0,1.0,0,Disgust,7.49205,0
52,0,53.0,701.0,1,1,True,correct,True,2.0,3.0,4.0,2.0,1.0,0,Disgust,7.49205,0
53,0,54.0,674.0,1,1,True,correct,True,3.0,4.0,4.0,2.0,1.0,0,Disgust,7.49205,0
54,0,55.0,3533.0,0,1,False,incorrect,True,0.0,5.0,4.0,2.0,1.0,0,Disgust,7.49205,0
55,0,56.0,670.0,1,1,True,correct,True,1.0,6.0,4.0,2.0,1.0,0,Disgust,7.49205,0
56,0,57.0,682.0,1,1,True,incorrect,False,2.0,7.0,4.0,2.0,1.0,0,Disgust,7.49205,0
57,0,58.0,702.0,0,1,False,incorrect,True,0.0,8.0,4.0,2.0,1.0,0,Disgust,7.49205,0
58,0,59.0,709.0,1,1,True,incorrect,False,1.0,9.0,4.0,2.0,1.0,0,Disgust,7.49205,0
59,0,60.0,555.0,1,1,True,correct,True,2.0,10.0,4.0,2.0,1.0,0,Disgust,7.49205,0
60,0,61.0,638.0,1,1,True,correct,True,3.0,11.0,4.0,2.0,1.0,0,Disgust,7.49205,0
61,0,62.0,756.0,1,1,True,correct,True,4.0,12.0,4.0,2.0,1.0,0,Disgust,7.49205,0
62,0,63.0,615.0,1,1,True,correct,True,5.0,13.0,4.0,2.0,1.0,0,Disgust,7.49205,0
63,0,64.0,2459.0,1,0,False,correct,False,0.0,1.0,5.0,2.0,1.0,0,Disgust,7.49205,0
64,0,65.0,825.0,1,0,False,incorrect,True,0.0,2.0,5.0,2.0,1.0,0,Disgust,7.49205,0
65,0,66.0,720.0,1,0,False,incorrect,True,0.0,3.0,5.0,2.0,1.0,0,Disgust,7.49205,0
66,0,67.0,883.0,1,0,False,incorrect,True,0.0,4.0,5.0,2.0,1.0,0,Disgust,7.49205,0
67,0,68.0,717.0,1,0,False,incorrect,True,0.0,5.0,5.0,2.0,1.0,0,Disgust,7.49205,0
68,0,69.0,582.0,0,0,True,incorrect,False,1.0,6.0,5.0,2.0,1.0,0,Disgust,7.49205,0
69,0,70.0,633.0,0,0,True,correct,True,2.0,7.0,5.0,2.0,1.0,0,Disgust,7.49205,0
70,0,71.0,668.0,0,0,True,correct,True,3.0,8.0,5.0,2.0,1.0,0,Disgust,7.49205,0
71,0,72.0,1279.0,0,0,True,incorrect,False,4.0,9.0,5.0,2.0,1.0,0,Disgust,7.49205,0
72,0,73.0,632.0,1,0,False,incorrect,True,0.0,10.0,5.0,2.0,1.0,0,Disgust,7.49205,0
73,0,74.0,500.0,1,0,False,incorrect,True,0.0,11.0,5.0,2.0,1.0,0,Disgust,7.49205,0
74,0,75.0,492.0,0,0,True,correct,True,1.0,12.0,5.0,2.0,1.0,0,Disgust,7.49205,0
75,0,76.0,598.0,0,0,True,correct,True,2.0,13.0,5.0,2.0,1.0,0,Disgust,7.49205,0
76,0,77.0,762.0,0,0,True,correct,True,3.0,14.0,5.0,2.0,1.0,0,Disgust,7.49205,0
77,0,78.0,759.0,0,0,True,correct,True,4.0,15.0,5.0,2.0,1.0,0,Disgust,7.49205,0
78,0,79.0,608.0,0,0,True,correct,True,5.0,16.0,5.0,2.0,1.0,0,Disgust,7.49205,0
79,0,80.0,635.0,0,1,False,incorrect,True,0.0,1.0,6.0,2.0,1.0,0,Disgust,7.49205,0
80,0,81.0,997.0,1,1,True,correct,True,1.0,2.0,6.0,2.0,1.0,0,Disgust,7.49205,0
81,0,82.0,697.0,1,1,True,correct,True,2.0,3.0,6.0,2.0,1.0,0,Disgust,7.49205,0
82,0,83.0,671.0,1,1,True,correct,True,3.0,4.0,6.0,2.0,1.0,0,Disgust,7.49205,0
83,0,84.0,569.0,1,1,True,correct,True,4.0,5.0,6.0,2.0,1.0,0,Disgust,7.49205,0
84,0,85.0,681.0,1,1,True,incorrect,False,5.0,6.0,6.0,2.0,1.0,0,Disgust,7.49205,0
85,0,86.0,712.0,0,0,True,correct,True,1.0,1.0,7.0,2.0,1.0,0,Disgust,7.49205,0
86,0,87.0,1230.0,0,0,True,correct,True,2.0,2.0,7.0,2.0,1.0,0,Disgust,7.49205,0
87,0,88.0,846.0,0,0,True,correct,True,3.0,3.0,7.0,2.0,1.0,0,Disgust,7.49205,0
88,0,89.0,636.0,0,0,True,correct,True,4.0,4.0,7.0,2.0,1.0,0,Disgust,7.49205,0
89,0,90.0,801.0,0,0,True,correct,True,5.0,5.0,7.0,2.0,1.0,0,Disgust,7.49205,0
0,0,1.0,1677.0,0,0,True,correct,True,1.0,1.0,0.0,0.0,1.0,0,Fear,7.952216666666667,0
1,0,2.0,1030.0,0,0,True,correct,True,2.0,2.0,0.0,0.0,1.0,0,Fear,7.952216666666667,0
2,0,3.0,526.0,0,0,True,correct,True,3.0,3.0,0.0,0.0,1.0,0,Fear,7.952216666666667,0
3,0,4.0,604.0,0,0,True,correct,True,4.0,4.0,0.0,0.0,1.0,0,Fear,7.952216666666667,0
4,0,5.0,454.0,0,0,True,correct,True,5.0,5.0,0.0,0.0,1.0,0,Fear,7.952216666666667,0
5,0,6.0,741.0,0,1,False,incorrect,True,0.0,1.0,1.0,0.0,1.0,0,Fear,7.952216666666667,0
6,0,7.0,621.0,0,1,False,correct,False,0.0,2.0,1.0,0.0,1.0,0,Fear,7.952216666666667,0
7,0,8.0,659.0,0,1,False,incorrect,True,0.0,3.0,1.0,0.0,1.0,0,Fear,7.952216666666667,0
8,0,9.0,651.0,0,1,False,incorrect,True,0.0,4.0,1.0,0.0,1.0,0,Fear,7.952216666666667,0
9,0,10.0,739.0,1,1,True,incorrect,False,1.0,5.0,1.0,0.0,1.0,0,Fear,7.952216666666667,0
10,0,11.0,565.0,0,1,False,correct,False,0.0,6.0,1.0,0.0,1.0,0,Fear,7.952216666666667,0
11,0,12.0,590.0,0,1,False,incorrect,True,0.0,7.0,1.0,0.0,1.0,0,Fear,7.952216666666667,0
12,0,13.0,630.0,0,1,False,correct,False,0.0,8.0,1.0,0.0,1.0,0,Fear,7.952216666666667,0
13,0,14.0,608.0,0,1,False,incorrect,True,0.0,9.0,1.0,0.0,1.0,0,Fear,7.952216666666667,0
14,0,15.0,519.0,0,1,False,correct,False,0.0,10.0,1.0,0.0,1.0,0,Fear,7.952216666666667,0
15,0,16.0,699.0,0,1,False,correct,False,0.0,11.0,1.0,0.0,1.0,0,Fear,7.952216666666667,0
16,0,17.0,560.0,0,1,False,correct,False,0.0,12.0,1.0,0.0,1.0,0,Fear,7.952216666666667,0
17,0,18.0,675.0,0,1,False,incorrect,True,0.0,13.0,1.0,0.0,1.0,0,Fear,7.952216666666667,0
18,0,19.0,609.0,0,1,False,incorrect,True,0.0,14.0,1.0,0.0,1.0,0,Fear,7.952216666666667,0
19,0,20.0,461.0,0,1,False,incorrect,True,0.0,15.0,1.0,0.0,1.0,0,Fear,7.952216666666667,0
20,0,21.0,467.0,0,1,False,correct,False,0.0,16.0,1.0,0.0,1.0,0,Fear,7.952216666666667,0
21,0,22.0,543.0,0,1,False,incorrect,True,0.0,17.0,1.0,0.0,1.0,0,Fear,7.952216666666667,0
22,0,23.0,594.0,0,1,False,incorrect,True,0.0,18.0,1.0,0.0,1.0,0,Fear,7.952216666666667,0
23,0,24.0,809.0,0,1,False,incorrect,True,0.0,19.0,1.0,0.0,1.0,0,Fear,7.952216666666667,0
24,0,25.0,465.0,1,1,True,correct,True,1.0,20.0,1.0,0.0,1.0,0,Fear,7.952216666666667,0
25,0,26.0,502.0,1,1,True,correct,True,2.0,21.0,1.0,0.0,1.0,0,Fear,7.952216666666667,0
26,0,27.0,1094.0,1,1,True,correct,True,3.0,22.0,1.0,0.0,1.0,0,Fear,7.952216666666667,0
27,0,28.0,1815.0,0,1,False,incorrect,True,0.0,23.0,1.0,0.0,1.0,0,Fear,7.952216666666667,0
28,0,29.0,687.0,0,1,False,incorrect,True,0.0,24.0,1.0,0.0,1.0,0,Fear,7.952216666666667,0
29,0,30.0,494.0,0,1,False,correct,False,0.0,25.0,1.0,0.0,1.0,0,Fear,7.952216666666667,0
30,0,31.0,1202.0,0,1,False,correct,False,0.0,26.0,1.0,0.0,1.0,0,Fear,7.952216666666667,0
31,0,32.0,586.0,0,1,False,incorrect,True,0.0,27.0,1.0,0.0,1.0,0,Fear,7.952216666666667,0
32,0,33.0,605.0,0,1,False,incorrect,True,0.0,28.0,1.0,0.0,1.0,0,Fear,7.952216666666667,0
33,0,34.0,827.0,1,1,True,correct,True,1.0,29.0,1.0,0.0,1.0,0,Fear,7.952216666666667,0
34,0,35.0,573.0,0,1,False,incorrect,True,0.0,30.0,1.0,0.0,1.0,0,Fear,7.952216666666667,0
35,0,36.0,690.0,0,1,False,incorrect,True,0.0,31.0,1.0,0.0,1.0,0,Fear,7.952216666666667,0
36,0,37.0,1811.0,1,1,True,correct,True,1.0,32.0,1.0,0.0,1.0,0,Fear,7.952216666666667,0
37,0,38.0,691.0,1,1,True,correct,True,2.0,33.0,1.0,0.0,1.0,0,Fear,7.952216666666667,0
38,0,39.0,919.0,1,1,True,correct,True,3.0,34.0,1.0,0.0,1.0,0,Fear,7.952216666666667,0
39,0,40.0,854.0,1,1,True,correct,True,4.0,35.0,1.0,0.0,1.0,0,Fear,7.952216666666667,0
40,0,41.0,993.0,1,1,True,correct,True,5.0,36.0,1.0,0.0,1.0,0,Fear,7.952216666666667,0
41,0,42.0,688.0,1,0,False,correct,False,0.0,1.0,2.0,0.0,1.0,0,Fear,7.952216666666667,0
42,0,43.0,1008.0,1,0,False,correct,False,0.0,2.0,2.0,0.0,1.0,0,Fear,7.952216666666667,0
43,0,44.0,610.0,1,0,False,incorrect,True,0.0,3.0,2.0,0.0,1.0,0,Fear,7.952216666666667,0
44,0,45.0,558.0,0,0,True,correct,True,1.0,4.0,2.0,0.0,1.0,0,Fear,7.952216666666667,0
45,0,46.0,644.0,0,0,True,incorrect,False,2.0,5.0,2.0,0.0,1.0,0,Fear,7.952216666666667,0
46,0,47.0,622.0,1,0,False,incorrect,True,0.0,6.0,2.0,0.0,1.0,0,Fear,7.952216666666667,0
47,0,48.0,1536.0,0,0,True,correct,True,1.0,7.0,2.0,0.0,1.0,0,Fear,7.952216666666667,0
48,0,49.0,953.0,0,0,True,correct,True,2.0,8.0,2.0,0.0,1.0,0,Fear,7.952216666666667,0
49,0,50.0,1076.0,0,0,True,correct,True,3.0,9.0,2.0,0.0,1.0,0,Fear,7.952216666666667,0
50,0,51.0,861.0,0,0,True,correct,True,4.0,10.0,2.0,0.0,1.0,0,Fear,7.952216666666667,0
51,0,52.0,829.0,0,0,True,correct,True,5.0,11.0,2.0,0.0,1.0,0,Fear,7.952216666666667,0
52,0,53.0,817.0,0,1,False,incorrect,True,0.0,1.0,3.0,0.0,1.0,0,Fear,7.952216666666667,0
53,0,54.0,932.0,0,1,False,incorrect,True,0.0,2.0,3.0,0.0,1.0,0,Fear,7.952216666666667,0
54,0,55.0,646.0,1,1,True,correct,True,1.0,3.0,3.0,0.0,1.0,0,Fear,7.952216666666667,0
55,0,56.0,827.0,1,1,True,correct,True,2.0,4.0,3.0,0.0,1.0,0,Fear,7.952216666666667,0
56,0,57.0,1297.0,0,1,False,incorrect,True,0.0,5.0,3.0,0.0,1.0,0,Fear,7.952216666666667,0
57,0,58.0,597.0,1,1,True,correct,True,1.0,6.0,3.0,0.0,1.0,0,Fear,7.952216666666667,0
58,0,59.0,842.0,1,1,True,correct,True,2.0,7.0,3.0,0.0,1.0,0,Fear,7.952216666666667,0
59,0,60.0,591.0,0,1,False,incorrect,True,0.0,8.0,3.0,0.0,1.0,0,Fear,7.952216666666667,0
60,0,61.0,940.0,1,1,True,correct,True,1.0,9.0,3.0,0.0,1.0,0,Fear,7.952216666666667,0
61,0,62.0,2284.0,1,1,True,correct,True,2.0,10.0,3.0,0.0,1.0,0,Fear,7.952216666666667,0
62,0,63.0,854.0,1,1,True,correct,True,3.0,11.0,3.0,0.0,1.0,0,Fear,7.952216666666667,0
63,0,64.0,1440.0,1,1,True,correct,True,4.0,12.0,3.0,0.0,1.0,0,Fear,7.952216666666667,0
64,0,65.0,723.0,1,1,True,correct,True,5.0,13.0,3.0,0.0,1.0,0,Fear,7.952216666666667,0
65,0,66.0,652.0,1,0,False,incorrect,True,0.0,1.0,4.0,0.0,1.0,0,Fear,7.952216666666667,0
66,0,67.0,1010.0,0,0,True,correct,True,1.0,2.0,4.0,0.0,1.0,0,Fear,7.952216666666667,0
67,0,68.0,1429.0,0,0,True,correct,True,2.0,3.0,4.0,0.0,1.0,0,Fear,7.952216666666667,0
68,0,69.0,957.0,0,0,True,correct,True,3.0,4.0,4.0,0.0,1.0,0,Fear,7.952216666666667,0
69,0,70.0,1231.0,0,0,True,correct,True,4.0,5.0,4.0,0.0,1.0,0,Fear,7.952216666666667,0
70,0,71.0,851.0,0,0,True,correct,True,5.0,6.0,4.0,0.0,1.0,0,Fear,7.952216666666667,0
71,0,72.0,539.0,0,1,False,incorrect,True,0.0,1.0,5.0,0.0,1.0,0,Fear,7.952216666666667,0
72,0,73.0,740.0,1,1,True,correct,True,1.0,2.0,5.0,0.0,1.0,0,Fear,7.952216666666667,0
73,0,74.0,1043.0,1,1,True,correct,True,2.0,3.0,5.0,0.0,1.0,0,Fear,7.952216666666667,0
74,0,75.0,1218.0,1,1,True,incorrect,False,3.0,4.0,5.0,0.0,1.0,0,Fear,7.952216666666667,0
75,0,76.0,1087.0,0,1,False,incorrect,True,0.0,5.0,5.0,0.0,1.0,0,Fear,7.952216666666667,0
76,0,77.0,643.0,1,1,True,correct,True,1.0,6.0,5.0,0.0,1.0,0,Fear,7.952216666666667,0
77,0,78.0,576.0,1,1,True,incorrect,False,2.0,7.0,5.0,0.0,1.0,0,Fear,7.952216666666667,0
78,0,79.0,854.0,1,1,True,correct,True,3.0,8.0,5.0,0.0,1.0,0,Fear,7.952216666666667,0
79,0,80.0,713.0,1,1,True,correct,True,4.0,9.0,5.0,0.0,1.0,0,Fear,7.952216666666667,0
80,0,81.0,3305.0,1,1,True,correct,True,5.0,10.0,5.0,0.0,1.0,0,Fear,7.952216666666667,0
81,0,82.0,797.0,1,0,False,incorrect,True,0.0,1.0,6.0,0.0,1.0,0,Fear,7.952216666666667,0
82,0,83.0,794.0,1,0,False,correct,False,0.0,2.0,6.0,0.0,1.0,0,Fear,7.952216666666667,0
83,0,84.0,687.0,1,0,False,incorrect,True,0.0,3.0,6.0,0.0,1.0,0,Fear,7.952216666666667,0
84,0,85.0,734.0,0,0,True,correct,True,1.0,4.0,6.0,0.0,1.0,0,Fear,7.952216666666667,0
85,0,86.0,658.0,0,0,True,correct,True,2.0,5.0,6.0,0.0,1.0,0,Fear,7.952216666666667,0
86,0,87.0,590.0,0,0,True,correct,True,3.0,6.0,6.0,0.0,1.0,0,Fear,7.952216666666667,0
87,0,88.0,739.0,0,0,True,incorrect,False,4.0,7.0,6.0,0.0,1.0,0,Fear,7.952216666666667,0
88,0,89.0,722.0,0,0,True,incorrect,False,5.0,8.0,6.0,0.0,1.0,0,Fear,7.952216666666667,0
89,0,90.0,1539.0,1,1,True,incorrect,False,1.0,1.0,7.0,0.0,1.0,0,Fear,7.952216666666667,0
90,0,91.0,1090.0,0,1,False,incorrect,True,0.0,2.0,7.0,0.0,1.0,0,Fear,7.952216666666667,0
91,0,92.0,847.0,1,1,True,correct,True,1.0,3.0,7.0,0.0,1.0,0,Fear,7.952216666666667,0
92,0,93.0,811.0,1,1,True,correct,True,2.0,4.0,7.0,0.0,1.0,0,Fear,7.952216666666667,0
93,0,94.0,667.0,1,1,True,correct,True,3.0,5.0,7.0,0.0,1.0,0,Fear,7.952216666666667,0
94,0,95.0,781.0,1,1,True,correct,True,4.0,6.0,7.0,0.0,1.0,0,Fear,7.952216666666667,0
95,0,96.0,637.0,1,1,True,correct,True,5.0,7.0,7.0,0.0,1.0,0,Fear,7.952216666666667,0
0,0,1.0,2284.0,1,1,True,correct,True,1.0,1.0,0.0,1.0,1.0,0,Points,11.884533333333334,0
1,0,2.0,1018.0,1,1,True,correct,True,2.0,2.0,0.0,1.0,1.0,0,Points,11.884533333333334,0
2,0,3.0,1288.0,1,1,True,correct,True,3.0,3.0,0.0,1.0,1.0,0,Points,11.884533333333334,0
3,0,4.0,1090.0,1,1,True,correct,True,4.0,4.0,0.0,1.0,1.0,0,Points,11.884533333333334,0
4,0,5.0,621.0,1,1,True,correct,True,5.0,5.0,0.0,1.0,1.0,0,Points,11.884533333333334,0
5,0,6.0,866.0,1,0,False,incorrect,True,0.0,1.0,1.0,1.0,1.0,0,Points,11.884533333333334,0
6,0,7.0,2901.0,0,0,True,incorrect,False,1.0,2.0,1.0,1.0,1.0,0,Points,11.884533333333334,0
7,0,8.0,1085.0,1,0,False,correct,False,0.0,3.0,1.0,1.0,1.0,0,Points,11.884533333333334,0
8,0,9.0,681.0,0,0,True,correct,True,1.0,4.0,1.0,1.0,1.0,0,Points,11.884533333333334,0
9,0,10.0,504.0,0,0,True,correct,True,2.0,5.0,1.0,1.0,1.0,0,Points,11.884533333333334,0
10,0,11.0,900.0,0,0,True,correct,True,3.0,6.0,1.0,1.0,1.0,0,Points,11.884533333333334,0
11,0,12.0,524.0,0,0,True,correct,True,4.0,7.0,1.0,1.0,1.0,0,Points,11.884533333333334,0
12,0,13.0,832.0,0,0,True,correct,True,5.0,8.0,1.0,1.0,1.0,0,Points,11.884533333333334,0
13,0,14.0,948.0,0,1,False,incorrect,True,0.0,1.0,2.0,1.0,1.0,0,Points,11.884533333333334,0
14,0,15.0,1116.0,1,1,True,correct,True,1.0,2.0,2.0,1.0,1.0,0,Points,11.884533333333334,0
15,0,16.0,609.0,0,1,False,incorrect,True,0.0,3.0,2.0,1.0,1.0,0,Points,11.884533333333334,0
16,0,17.0,813.0,0,1,False,incorrect,True,0.0,4.0,2.0,1.0,1.0,0,Points,11.884533333333334,0
17,0,18.0,490.0,1,1,True,incorrect,False,1.0,5.0,2.0,1.0,1.0,0,Points,11.884533333333334,0
18,0,19.0,515.0,1,1,True,correct,True,2.0,6.0,2.0,1.0,1.0,0,Points,11.884533333333334,0
19,0,20.0,870.0,1,1,True,incorrect,False,3.0,7.0,2.0,1.0,1.0,0,Points,11.884533333333334,0
20,0,21.0,1019.0,1,1,True,correct,True,4.0,8.0,2.0,1.0,1.0,0,Points,11.884533333333334,0
21,0,22.0,823.0,1,1,True,correct,True,5.0,9.0,2.0,1.0,1.0,0,Points,11.884533333333334,0
22,0,23.0,991.0,1,0,False,incorrect,True,0.0,1.0,3.0,1.0,1.0,0,Points,11.884533333333334,0
23,0,24.0,989.0,0,0,True,correct,True,1.0,2.0,3.0,1.0,1.0,0,Points,11.884533333333334,0
24,0,25.0,1006.0,1,0,False,correct,False,0.0,3.0,3.0,1.0,1.0,0,Points,11.884533333333334,0
25,0,26.0,810.0,1,0,False,incorrect,True,0.0,4.0,3.0,1.0,1.0,0,Points,11.884533333333334,0
26,0,27.0,679.0,0,0,True,correct,True,1.0,5.0,3.0,1.0,1.0,0,Points,11.884533333333334,0
27,0,28.0,1136.0,0,0,True,correct,True,2.0,6.0,3.0,1.0,1.0,0,Points,11.884533333333334,0
28,0,29.0,895.0,1,0,False,correct,False,0.0,7.0,3.0,1.0,1.0,0,Points,11.884533333333334,0
29,0,30.0,2653.0,1,0,False,correct,False,0.0,8.0,3.0,1.0,1.0,0,Points,11.884533333333334,0
30,0,31.0,998.0,1,0,False,incorrect,True,0.0,9.0,3.0,1.0,1.0,0,Points,11.884533333333334,0
31,0,32.0,620.0,0,0,True,incorrect,False,1.0,10.0,3.0,1.0,1.0,0,Points,11.884533333333334,0
32,0,33.0,729.0,1,0,False,incorrect,True,0.0,11.0,3.0,1.0,1.0,0,Points,11.884533333333334,0
33,0,34.0,433.0,0,0,True,correct,True,1.0,12.0,3.0,1.0,1.0,0,Points,11.884533333333334,0
34,0,35.0,1050.0,0,0,True,incorrect,False,2.0,13.0,3.0,1.0,1.0,0,Points,11.884533333333334,0
35,0,36.0,1010.0,1,0,False,incorrect,True,0.0,14.0,3.0,1.0,1.0,0,Points,11.884533333333334,0
36,0,37.0,1581.0,1,0,False,incorrect,True,0.0,15.0,3.0,1.0,1.0,0,Points,11.884533333333334,0
37,0,38.0,564.0,0,0,True,correct,True,1.0,16.0,3.0,1.0,1.0,0,Points,11.884533333333334,0
38,0,39.0,1652.0,0,0,True,correct,True,2.0,17.0,3.0,1.0,1.0,0,Points,11.884533333333334,0
39,0,40.0,634.0,0,0,True,correct,True,3.0,18.0,3.0,1.0,1.0,0,Points,11.884533333333334,0
40,0,41.0,1366.0,1,0,False,incorrect,True,0.0,19.0,3.0,1.0,1.0,0,Points,11.884533333333334,0
41,0,42.0,680.0,0,0,True,correct,True,1.0,20.0,3.0,1.0,1.0,0,Points,11.884533333333334,0
42,0,43.0,523.0,0,0,True,incorrect,False,2.0,21.0,3.0,1.0,1.0,0,Points,11.884533333333334,0
43,0,44.0,485.0,1,0,False,incorrect,True,0.0,22.0,3.0,1.0,1.0,0,Points,11.884533333333334,0
44,0,45.0,626.0,0,0,True,correct,True,1.0,23.0,3.0,1.0,1.0,0,Points,11.884533333333334,0
45,0,46.0,576.0,0,0,True,correct,True,2.0,24.0,3.0,1.0,1.0,0,Points,11.884533333333334,0
46,0,47.0,1335.0,0,0,True,correct,True,3.0,25.0,3.0,1.0,1.0,0,Points,11.884533333333334,0
47,0,48.0,2779.0,0,0,True,correct,True,4.0,26.0,3.0,1.0,1.0,0,Points,11.884533333333334,0
48,0,49.0,3556.0,0,0,True,incorrect,False,5.0,27.0,3.0,1.0,1.0,0,Points,11.884533333333334,0
49,0,50.0,867.0,0,1,False,incorrect,True,0.0,1.0,4.0,1.0,1.0,0,Points,11.884533333333334,0
50,0,51.0,739.0,1,1,True,correct,True,1.0,2.0,4.0,1.0,1.0,0,Points,11.884533333333334,0
51,0,52.0,636.0,0,1,False,incorrect,True,0.0,3.0,4.0,1.0,1.0,0,Points,11.884533333333334,0
52,0,53.0,560.0,1,1,True,correct,True,1.0,4.0,4.0,1.0,1.0,0,Points,11.884533333333334,0
53,0,54.0,528.0,0,1,False,incorrect,True,0.0,5.0,4.0,1.0,1.0,0,Points,11.884533333333334,0
54,0,55.0,692.0,1,1,True,correct,True,1.0,6.0,4.0,1.0,1.0,0,Points,11.884533333333334,0
55,0,56.0,1903.0,1,1,True,correct,True,2.0,7.0,4.0,1.0,1.0,0,Points,11.884533333333334,0
56,0,57.0,667.0,1,1,True,correct,True,3.0,8.0,4.0,1.0,1.0,0,Points,11.884533333333334,0
57,0,58.0,796.0,1,1,True,correct,True,4.0,9.0,4.0,1.0,1.0,0,Points,11.884533333333334,0
58,0,59.0,1821.0,1,1,True,correct,True,5.0,10.0,4.0,1.0,1.0,0,Points,11.884533333333334,0
59,0,60.0,1445.0,1,0,False,incorrect,True,0.0,1.0,5.0,1.0,1.0,0,Points,11.884533333333334,0
60,0,61.0,614.0,0,0,True,correct,True,1.0,2.0,5.0,1.0,1.0,0,Points,11.884533333333334,0
61,0,62.0,670.0,0,0,True,correct,True,2.0,3.0,5.0,1.0,1.0,0,Points,11.884533333333334,0
62,0,63.0,612.0,0,0,True,correct,True,3.0,4.0,5.0,1.0,1.0,0,Points,11.884533333333334,0
63,0,64.0,723.0,0,0,True,correct,True,4.0,5.0,5.0,1.0,1.0,0,Points,11.884533333333334,0
64,0,65.0,1322.0,0,0,True,correct,True,5.0,6.0,5.0,1.0,1.0,0,Points,11.884533333333334,0
65,0,66.0,1443.0,0,1,False,correct,False,0.0,1.0,6.0,1.0,1.0,0,Points,11.884533333333334,0
66,0,67.0,1728.0,1,1,True,incorrect,False,1.0,2.0,6.0,1.0,1.0,0,Points,11.884533333333334,0
67,0,68.0,457.0,0,1,False,correct,False,0.0,3.0,6.0,1.0,1.0,0,Points,11.884533333333334,0
68,0,69.0,1924.0,0,1,False,incorrect,True,0.0,4.0,6.0,1.0,1.0,0,Points,11.884533333333334,0
69,0,70.0,1437.0,0,1,False,incorrect,True,0.0,5.0,6.0,1.0,1.0,0,Points,11.884533333333334,0
70,0,71.0,569.0,0,1,False,correct,False,0.0,6.0,6.0,1.0,1.0,0,Points,11.884533333333334,0
71,0,72.0,521.0,0,1,False,correct,False,0.0,7.0,6.0,1.0,1.0,0,Points,11.884533333333334,0
72,0,73.0,575.0,0,1,False,incorrect,True,0.0,8.0,6.0,1.0,1.0,0,Points,11.884533333333334,0
73,0,74.0,603.0,0,1,False,correct,False,0.0,9.0,6.0,1.0,1.0,0,Points,11.884533333333334,0
74,0,75.0,809.0,0,1,False,incorrect,True,0.0,10.0,6.0,1.0,1.0,0,Points,11.884533333333334,0
75,0,76.0,562.0,0,1,False,incorrect,True,0.0,11.0,6.0,1.0,1.0,0,Points,11.884533333333334,0
76,0,77.0,455.0,0,1,False,incorrect,True,0.0,12.0,6.0,1.0,1.0,0,Points,11.884533333333334,0
77,0,78.0,480.0,0,1,False,incorrect,True,0.0,13.0,6.0,1.0,1.0,0,Points,11.884533333333334,0
78,0,79.0,335.0,1,1,True,correct,True,1.0,14.0,6.0,1.0,1.0,0,Points,11.884533333333334,0
79,0,80.0,444.0,1,1,True,incorrect,False,2.0,15.0,6.0,1.0,1.0,0,Points,11.884533333333334,0
80,0,81.0,997.0,0,1,False,correct,False,0.0,16.0,6.0,1.0,1.0,0,Points,11.884533333333334,0
81,0,82.0,522.0,0,1,False,incorrect,True,0.0,17.0,6.0,1.0,1.0,0,Points,11.884533333333334,0
82,0,83.0,520.0,0,1,False,correct,False,0.0,18.0,6.0,1.0,1.0,0,Points,11.884533333333334,0
83,0,84.0,1103.0,0,1,False,incorrect,True,0.0,19.0,6.0,1.0,1.0,0,Points,11.884533333333334,0
84,0,85.0,809.0,0,1,False,incorrect,True,0.0,20.0,6.0,1.0,1.0,0,Points,11.884533333333334,0
85,0,86.0,398.0,0,1,False,incorrect,True,0.0,21.0,6.0,1.0,1.0,0,Points,11.884533333333334,0
86,0,87.0,503.0,0,1,False,incorrect,True,0.0,22.0,6.0,1.0,1.0,0,Points,11.884533333333334,0
87,0,88.0,529.0,0,1,False,incorrect,True,0.0,23.0,6.0,1.0,1.0,0,Points,11.884533333333334,0
88,0,89.0,622.0,1,1,True,correct,True,1.0,24.0,6.0,1.0,1.0,0,Points,11.884533333333334,0
89,0,90.0,1460.0,0,1,False,incorrect,True,0.0,25.0,6.0,1.0,1.0,0,Points,11.884533333333334,0
90,0,91.0,621.0,0,1,False,incorrect,True,0.0,26.0,6.0,1.0,1.0,0,Points,11.884533333333334,0
91,0,92.0,1193.0,0,1,False,incorrect,True,0.0,27.0,6.0,1.0,1.0,0,Points,11.884533333333334,0
92,0,93.0,682.0,0,1,False,incorrect,True,0.0,28.0,6.0,1.0,1.0,0,Points,11.884533333333334,0
93,0,94.0,740.0,1,1,True,correct,True,1.0,29.0,6.0,1.0,1.0,0,Points,11.884533333333334,0
94,0,95.0,1332.0,1,1,True,correct,True,2.0,30.0,6.0,1.0,1.0,0,Points,11.884533333333334,0
95,0,96.0,541.0,0,1,False,incorrect,True,0.0,31.0,6.0,1.0,1.0,0,Points,11.884533333333334,0
96,0,97.0,552.0,1,1,True,correct,True,1.0,32.0,6.0,1.0,1.0,0,Points,11.884533333333334,0
97,0,98.0,884.0,0,1,False,incorrect,True,0.0,33.0,6.0,1.0,1.0,0,Points,11.884533333333334,0
98,0,99.0,651.0,1,1,True,correct,True,1.0,34.0,6.0,1.0,1.0,0,Points,11.884533333333334,0
99,0,100.0,816.0,1,1,True,incorrect,False,2.0,35.0,6.0,1.0,1.0,0,Points,11.884533333333334,0
100,0,101.0,810.0,1,1,True,correct,True,3.0,36.0,6.0,1.0,1.0,0,Points,11.884533333333334,0
101,0,102.0,602.0,0,1,False,incorrect,True,0.0,37.0,6.0,1.0,1.0,0,Points,11.884533333333334,0
102,0,103.0,911.0,1,1,True,incorrect,False,1.0,38.0,6.0,1.0,1.0,0,Points,11.884533333333334,0
103,0,104.0,459.0,0,1,False,incorrect,True,0.0,39.0,6.0,1.0,1.0,0,Points,11.884533333333334,0
104,0,105.0,952.0,1,1,True,correct,True,1.0,40.0,6.0,1.0,1.0,0,Points,11.884533333333334,0
105,0,106.0,975.0,1,1,True,correct,True,2.0,41.0,6.0,1.0,1.0,0,Points,11.884533333333334,0
106,0,107.0,1019.0,1,1,True,correct,True,3.0,42.0,6.0,1.0,1.0,0,Points,11.884533333333334,0
107,0,108.0,978.0,1,1,True,correct,True,4.0,43.0,6.0,1.0,1.0,0,Points,11.884533333333334,0
108,0,109.0,904.0,1,1,True,correct,True,5.0,44.0,6.0,1.0,1.0,0,Points,11.884533333333334,0
109,0,110.0,802.0,0,0,True,correct,True,1.0,1.0,7.0,1.0,1.0,0,Points,11.884533333333334,0
110,0,111.0,880.0,1,0,False,incorrect,True,0.0,2.0,7.0,1.0,1.0,0,Points,11.884533333333334,0
111,0,112.0,604.0,0,0,True,correct,True,1.0,3.0,7.0,1.0,1.0,0,Points,11.884533333333334,0
112,0,113.0,1334.0,1,0,False,correct,False,0.0,4.0,7.0,1.0,1.0,0,Points,11.884533333333334,0
113,0,114.0,930.0,1,0,False,incorrect,True,0.0,5.0,7.0,1.0,1.0,0,Points,11.884533333333334,0
114,0,115.0,655.0,0,0,True,correct,True,1.0,6.0,7.0,1.0,1.0,0,Points,11.884533333333334,0
115,0,116.0,802.0,1,0,False,incorrect,True,0.0,7.0,7.0,1.0,1.0,0,Points,11.884533333333334,0
116,0,117.0,1209.0,0,0,True,incorrect,False,1.0,8.0,7.0,1.0,1.0,0,Points,11.884533333333334,0
117,0,118.0,762.0,1,0,False,incorrect,True,0.0,9.0,7.0,1.0,1.0,0,Points,11.884533333333334,0
118,0,119.0,696.0,0,0,True,correct,True,1.0,10.0,7.0,1.0,1.0,0,Points,11.884533333333334,0
119,0,120.0,697.0,1,0,False,incorrect,True,0.0,11.0,7.0,1.0,1.0,0,Points,11.884533333333334,0
120,0,121.0,537.0,0,0,True,correct,True,1.0,12.0,7.0,1.0,1.0,0,Points,11.884533333333334,0
121,0,122.0,1113.0,1,0,False,incorrect,True,0.0,13.0,7.0,1.0,1.0,0,Points,11.884533333333334,0
122,0,123.0,1146.0,1,0,False,incorrect,True,0.0,14.0,7.0,1.0,1.0,0,Points,11.884533333333334,0
123,0,124.0,1336.0,1,0,False,incorrect,True,0.0,15.0,7.0,1.0,1.0,0,Points,11.884533333333334,0
124,0,125.0,627.0,0,0,True,correct,True,1.0,16.0,7.0,1.0,1.0,0,Points,11.884533333333334,0
125,0,126.0,2101.0,0,0,True,correct,True,2.0,17.0,7.0,1.0,1.0,0,Points,11.884533333333334,0
126,0,127.0,1738.0,0,0,True,incorrect,False,3.0,18.0,7.0,1.0,1.0,0,Points,11.884533333333334,0
127,0,128.0,573.0,0,0,True,correct,True,4.0,19.0,7.0,1.0,1.0,0,Points,11.884533333333334,0
128,0,129.0,1181.0,1,0,False,incorrect,True,0.0,20.0,7.0,1.0,1.0,0,Points,11.884533333333334,0
129,0,130.0,568.0,0,0,True,incorrect,False,1.0,21.0,7.0,1.0,1.0,0,Points,11.884533333333334,0
130,0,131.0,536.0,0,0,True,correct,True,2.0,22.0,7.0,1.0,1.0,0,Points,11.884533333333334,0
131,0,132.0,857.0,1,0,False,incorrect,True,0.0,23.0,7.0,1.0,1.0,0,Points,11.884533333333334,0
132,0,133.0,1230.0,1,0,False,incorrect,True,0.0,24.0,7.0,1.0,1.0,0,Points,11.884533333333334,0
133,0,134.0,686.0,0,0,True,incorrect,False,1.0,25.0,7.0,1.0,1.0,0,Points,11.884533333333334,0
134,0,135.0,805.0,0,0,True,correct,True,2.0,26.0,7.0,1.0,1.0,0,Points,11.884533333333334,0
135,0,136.0,731.0,1,0,False,incorrect,True,0.0,27.0,7.0,1.0,1.0,0,Points,11.884533333333334,0
136,0,137.0,660.0,0,0,True,correct,True,1.0,28.0,7.0,1.0,1.0,0,Points,11.884533333333334,0
137,0,138.0,732.0,0,0,True,correct,True,2.0,29.0,7.0,1.0,1.0,0,Points,11.884533333333334,0
138,0,139.0,587.0,0,0,True,correct,True,3.0,30.0,7.0,1.0,1.0,0,Points,11.884533333333334,0
139,0,140.0,1536.0,0,0,True,correct,True,4.0,31.0,7.0,1.0,1.0,0,Points,11.884533333333334,0
140,0,141.0,514.0,0,0,True,incorrect,False,5.0,32.0,7.0,1.0,1.0,0,Points,11.884533333333334,0
0,0,1.0,4389.0,0,1,False,incorrect,True,0.0,1.0,0.0,1.0,2.0,0,Disgust,15.213966666666666,0
1,0,2.0,1221.0,1,1,True,correct,True,1.0,2.0,0.0,1.0,2.0,0,Disgust,15.213966666666666,0
2,0,3.0,537.0,1,1,True,correct,True,2.0,3.0,0.0,1.0,2.0,0,Disgust,15.213966666666666,0
3,0,4.0,1066.0,1,1,True,correct,True,3.0,4.0,0.0,1.0,2.0,0,Disgust,15.213966666666666,0
4,0,5.0,918.0,1,1,True,correct,True,4.0,5.0,0.0,1.0,2.0,0,Disgust,15.213966666666666,0
5,0,6.0,655.0,1,1,True,correct,True,5.0,6.0,0.0,1.0,2.0,0,Disgust,15.213966666666666,0
6,0,7.0,1855.0,1,1,True,incorrect,False,6.0,7.0,0.0,1.0,2.0,0,Disgust,15.213966666666666,0
7,0,8.0,2707.0,1,0,False,incorrect,True,0.0,1.0,1.0,1.0,2.0,0,Disgust,15.213966666666666,0
8,0,9.0,3781.0,1,0,False,incorrect,True,0.0,2.0,1.0,1.0,2.0,0,Disgust,15.213966666666666,0
9,0,10.0,8724.0,0,0,True,correct,True,1.0,3.0,1.0,1.0,2.0,0,Disgust,15.213966666666666,0
10,0,11.0,1128.0,0,0,True,correct,True,2.0,4.0,1.0,1.0,2.0,0,Disgust,15.213966666666666,0
11,0,12.0,1405.0,0,0,True,correct,True,3.0,5.0,1.0,1.0,2.0,0,Disgust,15.213966666666666,0
12,0,13.0,5847.0,0,0,True,correct,True,4.0,6.0,1.0,1.0,2.0,0,Disgust,15.213966666666666,0
13,0,14.0,1184.0,0,0,True,correct,True,5.0,7.0,1.0,1.0,2.0,0,Disgust,15.213966666666666,0
14,0,15.0,1304.0,0,0,True,correct,True,6.0,8.0,1.0,1.0,2.0,0,Disgust,15.213966666666666,0
15,0,16.0,1380.0,0,1,False,incorrect,True,0.0,1.0,2.0,1.0,2.0,0,Disgust,15.213966666666666,0
16,0,17.0,1719.0,1,1,True,correct,True,1.0,2.0,2.0,1.0,2.0,0,Disgust,15.213966666666666,0
17,0,18.0,1372.0,1,1,True,correct,True,2.0,3.0,2.0,1.0,2.0,0,Disgust,15.213966666666666,0
18,0,19.0,799.0,0,1,False,incorrect,True,0.0,4.0,2.0,1.0,2.0,0,Disgust,15.213966666666666,0
19,0,20.0,2213.0,0,1,False,incorrect,True,0.0,5.0,2.0,1.0,2.0,0,Disgust,15.213966666666666,0
20,0,21.0,921.0,0,1,False,incorrect,True,0.0,6.0,2.0,1.0,2.0,0,Disgust,15.213966666666666,0
21,0,22.0,685.0,1,1,True,correct,True,1.0,7.0,2.0,1.0,2.0,0,Disgust,15.213966666666666,0
22,0,23.0,1206.0,0,1,False,incorrect,True,0.0,8.0,2.0,1.0,2.0,0,Disgust,15.213966666666666,0
23,0,24.0,696.0,0,1,False,incorrect,True,0.0,9.0,2.0,1.0,2.0,0,Disgust,15.213966666666666,0
24,0,25.0,1565.0,1,1,True,correct,True,1.0,10.0,2.0,1.0,2.0,0,Disgust,15.213966666666666,0
25,0,26.0,2050.0,0,1,False,incorrect,True,0.0,11.0,2.0,1.0,2.0,0,Disgust,15.213966666666666,0
26,0,27.0,1206.0,0,1,False,incorrect,True,0.0,12.0,2.0,1.0,2.0,0,Disgust,15.213966666666666,0
27,0,28.0,1119.0,0,1,False,correct,False,0.0,13.0,2.0,1.0,2.0,0,Disgust,15.213966666666666,0
28,0,29.0,797.0,0,1,False,incorrect,True,0.0,14.0,2.0,1.0,2.0,0,Disgust,15.213966666666666,0
29,0,30.0,1003.0,1,1,True,correct,True,1.0,15.0,2.0,1.0,2.0,0,Disgust,15.213966666666666,0
30,0,31.0,650.0,1,1,True,correct,True,2.0,16.0,2.0,1.0,2.0,0,Disgust,15.213966666666666,0
31,0,32.0,588.0,1,1,True,correct,True,3.0,17.0,2.0,1.0,2.0,0,Disgust,15.213966666666666,0
32,0,33.0,512.0,1,1,True,correct,True,4.0,18.0,2.0,1.0,2.0,0,Disgust,15.213966666666666,0
33,0,34.0,695.0,1,1,True,correct,True,5.0,19.0,2.0,1.0,2.0,0,Disgust,15.213966666666666,0
34,0,35.0,644.0,1,1,True,correct,True,6.0,20.0,2.0,1.0,2.0,0,Disgust,15.213966666666666,0
35,0,36.0,521.0,1,0,False,incorrect,True,0.0,1.0,3.0,1.0,2.0,0,Disgust,15.213966666666666,0
36,0,37.0,948.0,0,0,True,incorrect,False,1.0,2.0,3.0,1.0,2.0,0,Disgust,15.213966666666666,0
37,0,38.0,591.0,0,0,True,correct,True,2.0,3.0,3.0,1.0,2.0,0,Disgust,15.213966666666666,0
38,0,39.0,437.0,0,0,True,correct,True,3.0,4.0,3.0,1.0,2.0,0,Disgust,15.213966666666666,0
39,0,40.0,2162.0,0,0,True,correct,True,4.0,5.0,3.0,1.0,2.0,0,Disgust,15.213966666666666,0
40,0,41.0,779.0,0,0,True,correct,True,5.0,6.0,3.0,1.0,2.0,0,Disgust,15.213966666666666,0
41,0,42.0,755.0,0,0,True,incorrect,False,6.0,7.0,3.0,1.0,2.0,0,Disgust,15.213966666666666,0
42,0,43.0,720.0,1,1,True,correct,True,1.0,1.0,4.0,1.0,2.0,0,Disgust,15.213966666666666,0
43,0,44.0,629.0,1,1,True,correct,True,2.0,2.0,4.0,1.0,2.0,0,Disgust,15.213966666666666,0
44,0,45.0,3501.0,1,1,True,correct,True,3.0,3.0,4.0,1.0,2.0,0,Disgust,15.213966666666666,0
45,0,46.0,925.0,0,1,False,incorrect,True,0.0,4.0,4.0,1.0,2.0,0,Disgust,15.213966666666666,0
46,0,47.0,1853.0,1,1,True,incorrect,False,1.0,5.0,4.0,1.0,2.0,0,Disgust,15.213966666666666,0
47,0,48.0,830.0,1,1,True,incorrect,False,2.0,6.0,4.0,1.0,2.0,0,Disgust,15.213966666666666,0
48,0,49.0,1567.0,0,1,False,incorrect,True,0.0,7.0,4.0,1.0,2.0,0,Disgust,15.213966666666666,0
49,0,50.0,1043.0,0,1,False,correct,False,0.0,8.0,4.0,1.0,2.0,0,Disgust,15.213966666666666,0
50,0,51.0,973.0,0,1,False,incorrect,True,0.0,9.0,4.0,1.0,2.0,0,Disgust,15.213966666666666,0
51,0,52.0,905.0,0,1,False,incorrect,True,0.0,10.0,4.0,1.0,2.0,0,Disgust,15.213966666666666,0
52,0,53.0,788.0,1,1,True,incorrect,False,1.0,11.0,4.0,1.0,2.0,0,Disgust,15.213966666666666,0
53,0,54.0,760.0,0,1,False,incorrect,True,0.0,12.0,4.0,1.0,2.0,0,Disgust,15.213966666666666,0
54,0,55.0,1320.0,0,1,False,incorrect,True,0.0,13.0,4.0,1.0,2.0,0,Disgust,15.213966666666666,0
55,0,56.0,1843.0,0,1,False,incorrect,True,0.0,14.0,4.0,1.0,2.0,0,Disgust,15.213966666666666,0
56,0,57.0,1003.0,0,1,False,incorrect,True,0.0,15.0,4.0,1.0,2.0,0,Disgust,15.213966666666666,0
57,0,58.0,2590.0,0,1,False,incorrect,True,0.0,16.0,4.0,1.0,2.0,0,Disgust,15.213966666666666,0
58,0,59.0,1023.0,1,1,True,correct,True,1.0,17.0,4.0,1.0,2.0,0,Disgust,15.213966666666666,0
59,0,60.0,608.0,1,1,True,incorrect,False,2.0,18.0,4.0,1.0,2.0,0,Disgust,15.213966666666666,0
60,0,61.0,717.0,0,1,False,incorrect,True,0.0,19.0,4.0,1.0,2.0,0,Disgust,15.213966666666666,0
61,0,62.0,824.0,1,1,True,correct,True,1.0,20.0,4.0,1.0,2.0,0,Disgust,15.213966666666666,0
62,0,63.0,818.0,1,1,True,correct,True,2.0,21.0,4.0,1.0,2.0,0,Disgust,15.213966666666666,0
63,0,64.0,1959.0,1,1,True,incorrect,False,3.0,22.0,4.0,1.0,2.0,0,Disgust,15.213966666666666,0
64,0,65.0,2926.0,1,1,True,correct,True,4.0,23.0,4.0,1.0,2.0,0,Disgust,15.213966666666666,0
65,0,66.0,1312.0,1,1,True,correct,True,5.0,24.0,4.0,1.0,2.0,0,Disgust,15.213966666666666,0
66,0,67.0,2586.0,0,1,False,correct,False,0.0,25.0,4.0,1.0,2.0,0,Disgust,15.213966666666666,0
67,0,68.0,3005.0,0,1,False,correct,False,0.0,26.0,4.0,1.0,2.0,0,Disgust,15.213966666666666,0
68,0,69.0,4451.0,0,1,False,incorrect,True,0.0,27.0,4.0,1.0,2.0,0,Disgust,15.213966666666666,0
69,0,70.0,697.0,0,1,False,incorrect,True,0.0,28.0,4.0,1.0,2.0,0,Disgust,15.213966666666666,0
70,0,71.0,951.0,1,1,True,correct,True,1.0,29.0,4.0,1.0,2.0,0,Disgust,15.213966666666666,0
71,0,72.0,652.0,1,1,True,correct,True,2.0,30.0,4.0,1.0,2.0,0,Disgust,15.213966666666666,0
72,0,73.0,24539.0,1,1,True,correct,True,3.0,31.0,4.0,1.0,2.0,0,Disgust,15.213966666666666,0
73,0,74.0,24881.0,1,1,True,correct,True,4.0,32.0,4.0,1.0,2.0,0,Disgust,15.213966666666666,0
74,0,75.0,530.0,0,1,False,incorrect,True,0.0,33.0,4.0,1.0,2.0,0,Disgust,15.213966666666666,0
75,0,76.0,868.0,0,1,False,incorrect,True,0.0,34.0,4.0,1.0,2.0,0,Disgust,15.213966666666666,0
76,0,77.0,1081.0,0,1,False,incorrect,True,0.0,35.0,4.0,1.0,2.0,0,Disgust,15.213966666666666,0
77,0,78.0,1549.0,1,1,True,correct,True,1.0,36.0,4.0,1.0,2.0,0,Disgust,15.213966666666666,0
78,0,79.0,1179.0,1,1,True,correct,True,2.0,37.0,4.0,1.0,2.0,0,Disgust,15.213966666666666,0
79,0,80.0,542.0,1,1,True,correct,True,3.0,38.0,4.0,1.0,2.0,0,Disgust,15.213966666666666,0
80,0,81.0,664.0,1,1,True,incorrect,False,4.0,39.0,4.0,1.0,2.0,0,Disgust,15.213966666666666,0
81,0,82.0,1075.0,1,1,True,correct,True,5.0,40.0,4.0,1.0,2.0,0,Disgust,15.213966666666666,0
82,0,83.0,830.0,1,1,True,correct,True,6.0,41.0,4.0,1.0,2.0,0,Disgust,15.213966666666666,0
83,0,84.0,526.0,1,0,False,incorrect,True,0.0,1.0,5.0,1.0,2.0,0,Disgust,15.213966666666666,0
84,0,85.0,899.0,1,0,False,correct,False,0.0,2.0,5.0,1.0,2.0,0,Disgust,15.213966666666666,0
85,0,86.0,786.0,1,0,False,incorrect,True,0.0,3.0,5.0,1.0,2.0,0,Disgust,15.213966666666666,0
86,0,87.0,1396.0,0,0,True,incorrect,False,1.0,4.0,5.0,1.0,2.0,0,Disgust,15.213966666666666,0
87,0,88.0,670.0,1,0,False,incorrect,True,0.0,5.0,5.0,1.0,2.0,0,Disgust,15.213966666666666,0
88,0,89.0,1289.0,0,0,True,correct,True,1.0,6.0,5.0,1.0,2.0,0,Disgust,15.213966666666666,0
89,0,90.0,354.0,0,0,True,correct,True,2.0,7.0,5.0,1.0,2.0,0,Disgust,15.213966666666666,0
90,0,91.0,1078.0,0,0,True,incorrect,False,3.0,8.0,5.0,1.0,2.0,0,Disgust,15.213966666666666,0
91,0,92.0,2551.0,1,0,False,incorrect,True,0.0,9.0,5.0,1.0,2.0,0,Disgust,15.213966666666666,0
92,0,93.0,634.0,0,0,True,incorrect,False,1.0,10.0,5.0,1.0,2.0,0,Disgust,15.213966666666666,0
93,0,94.0,931.0,0,0,True,incorrect,False,2.0,11.0,5.0,1.0,2.0,0,Disgust,15.213966666666666,0
94,0,95.0,1327.0,1,0,False,incorrect,True,0.0,12.0,5.0,1.0,2.0,0,Disgust,15.213966666666666,0
95,0,96.0,953.0,1,0,False,correct,False,0.0,13.0,5.0,1.0,2.0,0,Disgust,15.213966666666666,0
96,0,97.0,573.0,1,0,False,incorrect,True,0.0,14.0,5.0,1.0,2.0,0,Disgust,15.213966666666666,0
97,0,98.0,6094.0,0,0,True,correct,True,1.0,15.0,5.0,1.0,2.0,0,Disgust,15.213966666666666,0
98,0,99.0,678.0,0,0,True,correct,True,2.0,16.0,5.0,1.0,2.0,0,Disgust,15.213966666666666,0
99,0,100.0,975.0,0,0,True,correct,True,3.0,17.0,5.0,1.0,2.0,0,Disgust,15.213966666666666,0
100,0,101.0,790.0,1,0,False,incorrect,True,0.0,18.0,5.0,1.0,2.0,0,Disgust,15.213966666666666,0
101,0,102.0,1187.0,1,0,False,incorrect,True,0.0,19.0,5.0,1.0,2.0,0,Disgust,15.213966666666666,0
102,0,103.0,2994.0,1,0,False,incorrect,True,0.0,20.0,5.0,1.0,2.0,0,Disgust,15.213966666666666,0
103,0,104.0,2141.0,0,0,True,incorrect,False,1.0,21.0,5.0,1.0,2.0,0,Disgust,15.213966666666666,0
104,0,105.0,1353.0,1,0,False,incorrect,True,0.0,22.0,5.0,1.0,2.0,0,Disgust,15.213966666666666,0
105,0,106.0,4648.0,1,0,False,incorrect,True,0.0,23.0,5.0,1.0,2.0,0,Disgust,15.213966666666666,0
106,0,107.0,2279.0,1,0,False,incorrect,True,0.0,24.0,5.0,1.0,2.0,0,Disgust,15.213966666666666,0
107,0,108.0,976.0,0,0,True,incorrect,False,1.0,25.0,5.0,1.0,2.0,0,Disgust,15.213966666666666,0
108,0,109.0,2566.0,0,0,True,correct,True,2.0,26.0,5.0,1.0,2.0,0,Disgust,15.213966666666666,0
109,0,110.0,816.0,0,0,True,correct,True,3.0,27.0,5.0,1.0,2.0,0,Disgust,15.213966666666666,0
110,0,111.0,306.0,0,0,True,correct,True,4.0,28.0,5.0,1.0,2.0,0,Disgust,15.213966666666666,0
111,0,112.0,316.0,0,0,True,correct,True,5.0,29.0,5.0,1.0,2.0,0,Disgust,15.213966666666666,0
112,0,113.0,349.0,1,0,False,incorrect,True,0.0,30.0,5.0,1.0,2.0,0,Disgust,15.213966666666666,0
113,0,114.0,645.0,0,0,True,correct,True,1.0,31.0,5.0,1.0,2.0,0,Disgust,15.213966666666666,0
114,0,115.0,593.0,0,0,True,correct,True,2.0,32.0,5.0,1.0,2.0,0,Disgust,15.213966666666666,0
115,0,116.0,878.0,0,0,True,correct,True,3.0,33.0,5.0,1.0,2.0,0,Disgust,15.213966666666666,0
116,0,117.0,514.0,0,0,True,correct,True,4.0,34.0,5.0,1.0,2.0,0,Disgust,15.213966666666666,0
117,0,118.0,783.0,0,0,True,correct,True,5.0,35.0,5.0,1.0,2.0,0,Disgust,15.213966666666666,0
118,0,119.0,531.0,0,0,True,correct,True,6.0,36.0,5.0,1.0,2.0,0,Disgust,15.213966666666666,0
119,0,120.0,717.0,0,1,False,correct,False,0.0,1.0,6.0,1.0,2.0,0,Disgust,15.213966666666666,0
120,0,121.0,848.0,1,1,True,incorrect,False,1.0,2.0,6.0,1.0,2.0,0,Disgust,15.213966666666666,0
121,0,122.0,832.0,0,1,False,incorrect,True,0.0,3.0,6.0,1.0,2.0,0,Disgust,15.213966666666666,0
122,0,123.0,1111.0,0,1,False,correct,False,0.0,4.0,6.0,1.0,2.0,0,Disgust,15.213966666666666,0
123,0,124.0,840.0,0,1,False,correct,False,0.0,5.0,6.0,1.0,2.0,0,Disgust,15.213966666666666,0
124,0,125.0,1232.0,0,1,False,incorrect,True,0.0,6.0,6.0,1.0,2.0,0,Disgust,15.213966666666666,0
125,0,126.0,1129.0,0,1,False,incorrect,True,0.0,7.0,6.0,1.0,2.0,0,Disgust,15.213966666666666,0
126,0,127.0,958.0,1,1,True,correct,True,1.0,8.0,6.0,1.0,2.0,0,Disgust,15.213966666666666,0
127,0,128.0,826.0,1,1,True,correct,True,2.0,9.0,6.0,1.0,2.0,0,Disgust,15.213966666666666,0
128,0,129.0,726.0,1,1,True,correct,True,3.0,10.0,6.0,1.0,2.0,0,Disgust,15.213966666666666,0
129,0,130.0,614.0,1,1,True,correct,True,4.0,11.0,6.0,1.0,2.0,0,Disgust,15.213966666666666,0
130,0,131.0,678.0,1,1,True,correct,True,5.0,12.0,6.0,1.0,2.0,0,Disgust,15.213966666666666,0
131,0,132.0,797.0,1,1,True,correct,True,6.0,13.0,6.0,1.0,2.0,0,Disgust,15.213966666666666,0
132,0,133.0,921.0,1,0,False,incorrect,True,0.0,1.0,7.0,1.0,2.0,0,Disgust,15.213966666666666,0
133,0,134.0,2213.0,0,0,True,correct,True,1.0,2.0,7.0,1.0,2.0,0,Disgust,15.213966666666666,0
134,0,135.0,3964.0,1,0,False,incorrect,True,0.0,3.0,7.0,1.0,2.0,0,Disgust,15.213966666666666,0
135,0,136.0,785.0,1,0,False,incorrect,True,0.0,4.0,7.0,1.0,2.0,0,Disgust,15.213966666666666,0
136,0,137.0,1057.0,0,0,True,correct,True,1.0,5.0,7.0,1.0,2.0,0,Disgust,15.213966666666666,0
137,0,138.0,968.0,0,0,True,correct,True,2.0,6.0,7.0,1.0,2.0,0,Disgust,15.213966666666666,0
138,0,139.0,876.0,0,0,True,correct,True,3.0,7.0,7.0,1.0,2.0,0,Disgust,15.213966666666666,0
139,0,140.0,1890.0,0,0,True,incorrect,False,4.0,8.0,7.0,1.0,2.0,0,Disgust,15.213966666666666,0
140,0,141.0,662.0,1,0,False,correct,False,0.0,9.0,7.0,1.0,2.0,0,Disgust,15.213966666666666,0
141,0,142.0,836.0,0,0,True,correct,True,1.0,10.0,7.0,1.0,2.0,0,Disgust,15.213966666666666,0
142,0,143.0,512.0,0,0,True,incorrect,False,2.0,11.0,7.0,1.0,2.0,0,Disgust,15.213966666666666,0
143,0,144.0,1930.0,1,0,False,incorrect,True,0.0,12.0,7.0,1.0,2.0,0,Disgust,15.213966666666666,0
144,0,145.0,503.0,0,0,True,correct,True,1.0,13.0,7.0,1.0,2.0,0,Disgust,15.213966666666666,0
145,0,146.0,679.0,0,0,True,correct,True,2.0,14.0,7.0,1.0,2.0,0,Disgust,15.213966666666666,0
146,0,147.0,868.0,0,0,True,correct,True,3.0,15.0,7.0,1.0,2.0,0,Disgust,15.213966666666666,0
147,0,148.0,715.0,0,0,True,correct,True,4.0,16.0,7.0,1.0,2.0,0,Disgust,15.213966666666666,0
148,0,149.0,1117.0,0,0,True,incorrect,False,5.0,17.0,7.0,1.0,2.0,0,Disgust,15.213966666666666,0
149,0,150.0,1066.0,1,0,False,correct,False,0.0,18.0,7.0,1.0,2.0,0,Disgust,15.213966666666666,0
150,0,151.0,832.0,1,0,False,incorrect,True,0.0,19.0,7.0,1.0,2.0,0,Disgust,15.213966666666666,0
151,0,152.0,5693.0,0,0,True,correct,True,1.0,20.0,7.0,1.0,2.0,0,Disgust,15.213966666666666,0
152,0,153.0,973.0,1,0,False,correct,False,0.0,21.0,7.0,1.0,2.0,0,Disgust,15.213966666666666,0
153,0,154.0,583.0,0,0,True,correct,True,1.0,22.0,7.0,1.0,2.0,0,Disgust,15.213966666666666,0
154,0,155.0,1623.0,0,0,True,correct,True,2.0,23.0,7.0,1.0,2.0,0,Disgust,15.213966666666666,0
155,0,156.0,1526.0,0,0,True,incorrect,False,3.0,24.0,7.0,1.0,2.0,0,Disgust,15.213966666666666,0
156,0,157.0,1560.0,0,0,True,incorrect,False,4.0,25.0,7.0,1.0,2.0,0,Disgust,15.213966666666666,0
157,0,158.0,2439.0,0,0,True,correct,True,5.0,26.0,7.0,1.0,2.0,0,Disgust,15.213966666666666,0
158,0,159.0,731.0,0,0,True,incorrect,False,6.0,27.0,7.0,1.0,2.0,0,Disgust,15.213966666666666,0
0,0,1.0,3396.0,1,1,True,incorrect,False,1.0,1.0,0.0,2.0,2.0,1,Fear,17.180883333333334,1
1,0,2.0,898.0,0,1,False,incorrect,True,0.0,2.0,0.0,2.0,2.0,1,Fear,17.180883333333334,1
2,0,3.0,735.0,1,1,True,correct,True,1.0,3.0,0.0,2.0,2.0,1,Fear,17.180883333333334,1
3,0,4.0,599.0,1,1,True,correct,True,2.0,4.0,0.0,2.0,2.0,1,Fear,17.180883333333334,1
4,0,5.0,429.0,1,1,True,correct,True,3.0,5.0,0.0,2.0,2.0,1,Fear,17.180883333333334,1
5,0,6.0,410.0,1,1,True,incorrect,False,4.0,6.0,0.0,2.0,2.0,1,Fear,17.180883333333334,1
6,0,7.0,1069.0,0,1,False,incorrect,True,0.0,7.0,0.0,2.0,2.0,1,Fear,17.180883333333334,1
7,0,8.0,420.0,1,1,True,correct,True,1.0,8.0,0.0,2.0,2.0,1,Fear,17.180883333333334,1
8,0,9.0,411.0,1,1,True,correct,True,2.0,9.0,0.0,2.0,2.0,1,Fear,17.180883333333334,1
9,0,10.0,391.0,1,1,True,correct,True,3.0,10.0,0.0,2.0,2.0,1,Fear,17.180883333333334,1
10,0,11.0,497.0,1,1,True,incorrect,False,4.0,11.0,0.0,2.0,2.0,1,Fear,17.180883333333334,1
11,0,12.0,1091.0,0,1,False,correct,False,0.0,12.0,0.0,2.0,2.0,1,Fear,17.180883333333334,1
12,0,13.0,846.0,0,1,False,incorrect,True,0.0,13.0,0.0,2.0,2.0,1,Fear,17.180883333333334,1
13,0,14.0,532.0,0,1,False,incorrect,True,0.0,14.0,0.0,2.0,2.0,1,Fear,17.180883333333334,1
14,0,15.0,1056.0,1,1,True,correct,True,1.0,15.0,0.0,2.0,2.0,1,Fear,17.180883333333334,1
15,0,16.0,792.0,1,1,True,correct,True,2.0,16.0,0.0,2.0,2.0,1,Fear,17.180883333333334,1
16,0,17.0,740.0,1,1,True,correct,True,3.0,17.0,0.0,2.0,2.0,1,Fear,17.180883333333334,1
17,0,18.0,1151.0,0,1,False,incorrect,True,0.0,18.0,0.0,2.0,2.0,1,Fear,17.180883333333334,1
18,0,19.0,900.0,1,1,True,incorrect,False,1.0,19.0,0.0,2.0,2.0,1,Fear,17.180883333333334,1
19,0,20.0,1142.0,0,1,False,correct,False,0.0,20.0,0.0,2.0,2.0,1,Fear,17.180883333333334,1
20,0,21.0,886.0,0,1,False,incorrect,True,0.0,21.0,0.0,2.0,2.0,1,Fear,17.180883333333334,1
21,0,22.0,1867.0,0,1,False,incorrect,True,0.0,22.0,0.0,2.0,2.0,1,Fear,17.180883333333334,1
22,0,23.0,1215.0,1,1,True,correct,True,1.0,23.0,0.0,2.0,2.0,1,Fear,17.180883333333334,1
23,0,24.0,1054.0,1,1,True,correct,True,2.0,24.0,0.0,2.0,2.0,1,Fear,17.180883333333334,1
24,0,25.0,890.0,0,1,False,incorrect,True,0.0,25.0,0.0,2.0,2.0,1,Fear,17.180883333333334,1
25,0,26.0,1053.0,1,1,True,correct,True,1.0,26.0,0.0,2.0,2.0,1,Fear,17.180883333333334,1
26,0,27.0,1253.0,1,1,True,correct,True,2.0,27.0,0.0,2.0,2.0,1,Fear,17.180883333333334,1
27,0,28.0,4278.0,0,1,False,incorrect,True,0.0,28.0,0.0,2.0,2.0,1,Fear,17.180883333333334,1
28,0,29.0,1129.0,1,1,True,correct,True,1.0,29.0,0.0,2.0,2.0,1,Fear,17.180883333333334,1
29,0,30.0,825.0,0,1,False,incorrect,True,0.0,30.0,0.0,2.0,2.0,1,Fear,17.180883333333334,1
30,0,31.0,765.0,0,1,False,incorrect,True,0.0,31.0,0.0,2.0,2.0,1,Fear,17.180883333333334,1
31,0,32.0,1453.0,1,1,True,correct,True,1.0,32.0,0.0,2.0,2.0,1,Fear,17.180883333333334,1
32,0,33.0,954.0,1,1,True,correct,True,2.0,33.0,0.0,2.0,2.0,1,Fear,17.180883333333334,1
33,0,34.0,843.0,1,1,True,correct,True,3.0,34.0,0.0,2.0,2.0,1,Fear,17.180883333333334,1
34,0,35.0,875.0,0,1,False,incorrect,True,0.0,35.0,0.0,2.0,2.0,1,Fear,17.180883333333334,1
35,0,36.0,1339.0,1,1,True,correct,True,1.0,36.0,0.0,2.0,2.0,1,Fear,17.180883333333334,1
36,0,37.0,2249.0,0,1,False,incorrect,True,0.0,37.0,0.0,2.0,2.0,1,Fear,17.180883333333334,1
37,0,38.0,2042.0,0,1,False,incorrect,True,0.0,38.0,0.0,2.0,2.0,1,Fear,17.180883333333334,1
38,0,39.0,1927.0,0,1,False,incorrect,True,0.0,39.0,0.0,2.0,2.0,1,Fear,17.180883333333334,1
39,0,40.0,705.0,1,1,True,correct,True,1.0,40.0,0.0,2.0,2.0,1,Fear,17.180883333333334,1
40,0,41.0,478.0,1,1,True,incorrect,False,2.0,41.0,0.0,2.0,2.0,1,Fear,17.180883333333334,1
41,0,42.0,623.0,1,1,True,correct,True,3.0,42.0,0.0,2.0,2.0,1,Fear,17.180883333333334,1
42,0,43.0,762.0,1,1,True,correct,True,4.0,43.0,0.0,2.0,2.0,1,Fear,17.180883333333334,1
43,0,44.0,585.0,1,1,True,correct,True,5.0,44.0,0.0,2.0,2.0,1,Fear,17.180883333333334,1
44,0,45.0,762.0,1,1,True,correct,True,6.0,45.0,0.0,2.0,2.0,1,Fear,17.180883333333334,1
45,0,46.0,438.0,1,0,False,incorrect,True,0.0,1.0,1.0,2.0,2.0,1,Fear,17.180883333333334,1
46,0,47.0,687.0,1,0,False,correct,False,0.0,2.0,1.0,2.0,2.0,1,Fear,17.180883333333334,1
47,0,48.0,1034.0,0,0,True,correct,True,1.0,3.0,1.0,2.0,2.0,1,Fear,17.180883333333334,1
48,0,49.0,2207.0,0,0,True,correct,True,2.0,4.0,1.0,2.0,2.0,1,Fear,17.180883333333334,1
49,0,50.0,744.0,1,0,False,incorrect,True,0.0,5.0,1.0,2.0,2.0,1,Fear,17.180883333333334,1
50,0,51.0,893.0,1,0,False,incorrect,True,0.0,6.0,1.0,2.0,2.0,1,Fear,17.180883333333334,1
51,0,52.0,2152.0,1,0,False,incorrect,True,0.0,7.0,1.0,2.0,2.0,1,Fear,17.180883333333334,1
52,0,53.0,951.0,1,0,False,correct,False,0.0,8.0,1.0,2.0,2.0,1,Fear,17.180883333333334,1
53,0,54.0,778.0,1,0,False,incorrect,True,0.0,9.0,1.0,2.0,2.0,1,Fear,17.180883333333334,1
54,0,55.0,1882.0,1,0,False,correct,False,0.0,10.0,1.0,2.0,2.0,1,Fear,17.180883333333334,1
55,0,56.0,649.0,0,0,True,correct,True,1.0,11.0,1.0,2.0,2.0,1,Fear,17.180883333333334,1
56,0,57.0,981.0,1,0,False,incorrect,True,0.0,12.0,1.0,2.0,2.0,1,Fear,17.180883333333334,1
57,0,58.0,540.0,1,0,False,incorrect,True,0.0,13.0,1.0,2.0,2.0,1,Fear,17.180883333333334,1
58,0,59.0,675.0,1,0,False,incorrect,True,0.0,14.0,1.0,2.0,2.0,1,Fear,17.180883333333334,1
59,0,60.0,788.0,1,0,False,correct,False,0.0,15.0,1.0,2.0,2.0,1,Fear,17.180883333333334,1
60,0,61.0,3229.0,0,0,True,correct,True,1.0,16.0,1.0,2.0,2.0,1,Fear,17.180883333333334,1
61,0,62.0,2187.0,1,0,False,incorrect,True,0.0,17.0,1.0,2.0,2.0,1,Fear,17.180883333333334,1
62,0,63.0,558.0,1,0,False,incorrect,True,0.0,18.0,1.0,2.0,2.0,1,Fear,17.180883333333334,1
63,0,64.0,1299.0,0,0,True,incorrect,False,1.0,19.0,1.0,2.0,2.0,1,Fear,17.180883333333334,1
64,0,65.0,811.0,1,0,False,incorrect,True,0.0,20.0,1.0,2.0,2.0,1,Fear,17.180883333333334,1
65,0,66.0,1211.0,0,0,True,correct,True,1.0,21.0,1.0,2.0,2.0,1,Fear,17.180883333333334,1
66,0,67.0,1143.0,0,0,True,correct,True,2.0,22.0,1.0,2.0,2.0,1,Fear,17.180883333333334,1
67,0,68.0,1947.0,1,0,False,incorrect,True,0.0,23.0,1.0,2.0,2.0,1,Fear,17.180883333333334,1
68,0,69.0,2109.0,1,0,False,correct,False,0.0,24.0,1.0,2.0,2.0,1,Fear,17.180883333333334,1
69,0,70.0,2024.0,0,0,True,incorrect,False,1.0,25.0,1.0,2.0,2.0,1,Fear,17.180883333333334,1
70,0,71.0,675.0,0,0,True,correct,True,2.0,26.0,1.0,2.0,2.0,1,Fear,17.180883333333334,1
71,0,72.0,1877.0,0,0,True,correct,True,3.0,27.0,1.0,2.0,2.0,1,Fear,17.180883333333334,1
72,0,73.0,1091.0,1,0,False,incorrect,True,0.0,28.0,1.0,2.0,2.0,1,Fear,17.180883333333334,1
73,0,74.0,1468.0,1,0,False,incorrect,True,0.0,29.0,1.0,2.0,2.0,1,Fear,17.180883333333334,1
74,0,75.0,662.0,0,0,True,correct,True,1.0,30.0,1.0,2.0,2.0,1,Fear,17.180883333333334,1
75,0,76.0,787.0,1,0,False,incorrect,True,0.0,31.0,1.0,2.0,2.0,1,Fear,17.180883333333334,1
76,0,77.0,559.0,0,0,True,incorrect,False,1.0,32.0,1.0,2.0,2.0,1,Fear,17.180883333333334,1
77,0,78.0,768.0,1,0,False,correct,False,0.0,33.0,1.0,2.0,2.0,1,Fear,17.180883333333334,1
78,0,79.0,953.0,0,0,True,correct,True,1.0,34.0,1.0,2.0,2.0,1,Fear,17.180883333333334,1
79,0,80.0,1882.0,0,0,True,correct,True,2.0,35.0,1.0,2.0,2.0,1,Fear,17.180883333333334,1
80,0,81.0,1023.0,0,0,True,correct,True,3.0,36.0,1.0,2.0,2.0,1,Fear,17.180883333333334,1
81,0,82.0,592.0,1,0,False,incorrect,True,0.0,37.0,1.0,2.0,2.0,1,Fear,17.180883333333334,1
82,0,83.0,1238.0,0,0,True,correct,True,1.0,38.0,1.0,2.0,2.0,1,Fear,17.180883333333334,1
83,0,84.0,1109.0,1,0,False,incorrect,True,0.0,39.0,1.0,2.0,2.0,1,Fear,17.180883333333334,1
84,0,85.0,688.0,0,0,True,correct,True,1.0,40.0,1.0,2.0,2.0,1,Fear,17.180883333333334,1
85,0,86.0,708.0,1,0,False,incorrect,True,0.0,41.0,1.0,2.0,2.0,1,Fear,17.180883333333334,1
86,0,87.0,877.0,1,0,False,incorrect,True,0.0,42.0,1.0,2.0,2.0,1,Fear,17.180883333333334,1
87,0,88.0,861.0,1,0,False,incorrect,True,0.0,43.0,1.0,2.0,2.0,1,Fear,17.180883333333334,1
88,0,89.0,744.0,0,0,True,correct,True,1.0,44.0,1.0,2.0,2.0,1,Fear,17.180883333333334,1
89,0,90.0,1066.0,0,0,True,correct,True,2.0,45.0,1.0,2.0,2.0,1,Fear,17.180883333333334,1
90,0,91.0,433.0,1,0,False,incorrect,True,0.0,46.0,1.0,2.0,2.0,1,Fear,17.180883333333334,1
91,0,92.0,1158.0,1,0,False,incorrect,True,0.0,47.0,1.0,2.0,2.0,1,Fear,17.180883333333334,1
92,0,93.0,1034.0,0,0,True,incorrect,False,1.0,48.0,1.0,2.0,2.0,1,Fear,17.180883333333334,1
93,0,94.0,1426.0,1,0,False,incorrect,True,0.0,49.0,1.0,2.0,2.0,1,Fear,17.180883333333334,1
94,0,95.0,844.0,0,0,True,correct,True,1.0,50.0,1.0,2.0,2.0,1,Fear,17.180883333333334,1
95,0,96.0,610.0,0,0,True,correct,True,2.0,51.0,1.0,2.0,2.0,1,Fear,17.180883333333334,1
96,0,97.0,853.0,0,0,True,incorrect,False,3.0,52.0,1.0,2.0,2.0,1,Fear,17.180883333333334,1
97,0,98.0,946.0,0,0,True,correct,True,4.0,53.0,1.0,2.0,2.0,1,Fear,17.180883333333334,1
98,0,99.0,1229.0,0,0,True,correct,True,5.0,54.0,1.0,2.0,2.0,1,Fear,17.180883333333334,1
99,0,100.0,828.0,0,0,True,correct,True,6.0,55.0,1.0,2.0,2.0,1,Fear,17.180883333333334,1
100,0,101.0,966.0,1,1,True,correct,True,1.0,1.0,2.0,2.0,2.0,1,Fear,17.180883333333334,1
101,0,102.0,603.0,1,1,True,correct,True,2.0,2.0,2.0,2.0,2.0,1,Fear,17.180883333333334,1
102,0,103.0,887.0,1,1,True,correct,True,3.0,3.0,2.0,2.0,2.0,1,Fear,17.180883333333334,1
103,0,104.0,525.0,1,1,True,correct,True,4.0,4.0,2.0,2.0,2.0,1,Fear,17.180883333333334,1
104,0,105.0,498.0,1,1,True,correct,True,5.0,5.0,2.0,2.0,2.0,1,Fear,17.180883333333334,1
105,0,106.0,439.0,1,1,True,incorrect,False,6.0,6.0,2.0,2.0,2.0,1,Fear,17.180883333333334,1
106,0,107.0,773.0,1,0,False,correct,False,0.0,1.0,3.0,2.0,2.0,1,Fear,17.180883333333334,1
107,0,108.0,605.0,1,0,False,incorrect,True,0.0,2.0,3.0,2.0,2.0,1,Fear,17.180883333333334,1
108,0,109.0,680.0,0,0,True,correct,True,1.0,3.0,3.0,2.0,2.0,1,Fear,17.180883333333334,1
109,0,110.0,739.0,0,0,True,correct,True,2.0,4.0,3.0,2.0,2.0,1,Fear,17.180883333333334,1
110,0,111.0,732.0,0,0,True,incorrect,False,3.0,5.0,3.0,2.0,2.0,1,Fear,17.180883333333334,1
111,0,112.0,923.0,0,0,True,correct,True,4.0,6.0,3.0,2.0,2.0,1,Fear,17.180883333333334,1
112,0,113.0,987.0,0,0,True,incorrect,False,5.0,7.0,3.0,2.0,2.0,1,Fear,17.180883333333334,1
113,0,114.0,1218.0,1,0,False,incorrect,True,0.0,8.0,3.0,2.0,2.0,1,Fear,17.180883333333334,1
114,0,115.0,2230.0,0,0,True,correct,True,1.0,9.0,3.0,2.0,2.0,1,Fear,17.180883333333334,1
115,0,116.0,768.0,1,0,False,incorrect,True,0.0,10.0,3.0,2.0,2.0,1,Fear,17.180883333333334,1
116,0,117.0,1295.0,1,0,False,incorrect,True,0.0,11.0,3.0,2.0,2.0,1,Fear,17.180883333333334,1
117,0,118.0,601.0,1,0,False,incorrect,True,0.0,12.0,3.0,2.0,2.0,1,Fear,17.180883333333334,1
118,0,119.0,659.0,0,0,True,correct,True,1.0,13.0,3.0,2.0,2.0,1,Fear,17.180883333333334,1
119,0,120.0,1346.0,1,0,False,incorrect,True,0.0,14.0,3.0,2.0,2.0,1,Fear,17.180883333333334,1
120,0,121.0,969.0,0,0,True,correct,True,1.0,15.0,3.0,2.0,2.0,1,Fear,17.180883333333334,1
121,0,122.0,886.0,0,0,True,incorrect,False,2.0,16.0,3.0,2.0,2.0,1,Fear,17.180883333333334,1
122,0,123.0,1070.0,0,0,True,incorrect,False,3.0,17.0,3.0,2.0,2.0,1,Fear,17.180883333333334,1
123,0,124.0,1265.0,0,0,True,correct,True,4.0,18.0,3.0,2.0,2.0,1,Fear,17.180883333333334,1
124,0,125.0,808.0,0,0,True,incorrect,False,5.0,19.0,3.0,2.0,2.0,1,Fear,17.180883333333334,1
125,0,126.0,934.0,1,0,False,incorrect,True,0.0,20.0,3.0,2.0,2.0,1,Fear,17.180883333333334,1
126,0,127.0,918.0,1,0,False,incorrect,True,0.0,21.0,3.0,2.0,2.0,1,Fear,17.180883333333334,1
127,0,128.0,879.0,1,0,False,incorrect,True,0.0,22.0,3.0,2.0,2.0,1,Fear,17.180883333333334,1
128,0,129.0,694.0,0,0,True,correct,True,1.0,23.0,3.0,2.0,2.0,1,Fear,17.180883333333334,1
129,0,130.0,675.0,0,0,True,correct,True,2.0,24.0,3.0,2.0,2.0,1,Fear,17.180883333333334,1
130,0,131.0,1572.0,1,0,False,incorrect,True,0.0,25.0,3.0,2.0,2.0,1,Fear,17.180883333333334,1
131,0,132.0,797.0,0,0,True,correct,True,1.0,26.0,3.0,2.0,2.0,1,Fear,17.180883333333334,1
132,0,133.0,432.0,1,0,False,incorrect,True,0.0,27.0,3.0,2.0,2.0,1,Fear,17.180883333333334,1
133,0,134.0,783.0,0,0,True,correct,True,1.0,28.0,3.0,2.0,2.0,1,Fear,17.180883333333334,1
134,0,135.0,750.0,1,0,False,incorrect,True,0.0,29.0,3.0,2.0,2.0,1,Fear,17.180883333333334,1
135,0,136.0,1324.0,1,0,False,incorrect,True,0.0,30.0,3.0,2.0,2.0,1,Fear,17.180883333333334,1
136,0,137.0,1517.0,1,0,False,incorrect,True,0.0,31.0,3.0,2.0,2.0,1,Fear,17.180883333333334,1
137,0,138.0,634.0,1,0,False,incorrect,True,0.0,32.0,3.0,2.0,2.0,1,Fear,17.180883333333334,1
138,0,139.0,928.0,1,0,False,incorrect,True,0.0,33.0,3.0,2.0,2.0,1,Fear,17.180883333333334,1
139,0,140.0,1086.0,1,0,False,correct,False,0.0,34.0,3.0,2.0,2.0,1,Fear,17.180883333333334,1
140,0,141.0,772.0,1,0,False,incorrect,True,0.0,35.0,3.0,2.0,2.0,1,Fear,17.180883333333334,1
141,0,142.0,845.0,0,0,True,correct,True,1.0,36.0,3.0,2.0,2.0,1,Fear,17.180883333333334,1
142,0,143.0,648.0,0,0,True,correct,True,2.0,37.0,3.0,2.0,2.0,1,Fear,17.180883333333334,1
143,0,144.0,812.0,0,0,True,incorrect,False,3.0,38.0,3.0,2.0,2.0,1,Fear,17.180883333333334,1
144,0,145.0,589.0,0,0,True,incorrect,False,4.0,39.0,3.0,2.0,2.0,1,Fear,17.180883333333334,1
145,0,146.0,740.0,0,0,True,correct,True,5.0,40.0,3.0,2.0,2.0,1,Fear,17.180883333333334,1
146,0,147.0,869.0,0,0,True,correct,True,6.0,41.0,3.0,2.0,2.0,1,Fear,17.180883333333334,1
147,0,148.0,830.0,0,1,False,incorrect,True,0.0,1.0,4.0,2.0,2.0,1,Fear,17.180883333333334,1
148,0,149.0,1286.0,0,1,False,incorrect,True,0.0,2.0,4.0,2.0,2.0,1,Fear,17.180883333333334,1
149,0,150.0,850.0,0,1,False,correct,False,0.0,3.0,4.0,2.0,2.0,1,Fear,17.180883333333334,1
150,0,151.0,462.0,0,1,False,incorrect,True,0.0,4.0,4.0,2.0,2.0,1,Fear,17.180883333333334,1
151,0,152.0,586.0,0,1,False,incorrect,True,0.0,5.0,4.0,2.0,2.0,1,Fear,17.180883333333334,1
152,0,153.0,1339.0,1,1,True,incorrect,False,1.0,6.0,4.0,2.0,2.0,1,Fear,17.180883333333334,1
153,0,154.0,1862.0,1,1,True,correct,True,2.0,7.0,4.0,2.0,2.0,1,Fear,17.180883333333334,1
154,0,155.0,1544.0,1,1,True,correct,True,3.0,8.0,4.0,2.0,2.0,1,Fear,17.180883333333334,1
155,0,156.0,990.0,0,1,False,correct,False,0.0,9.0,4.0,2.0,2.0,1,Fear,17.180883333333334,1
156,0,157.0,137.0,0,1,False,incorrect,True,0.0,10.0,4.0,2.0,2.0,1,Fear,17.180883333333334,1
157,0,158.0,269.0,0,1,False,incorrect,True,0.0,11.0,4.0,2.0,2.0,1,Fear,17.180883333333334,1
158,0,159.0,651.0,0,1,False,incorrect,True,0.0,12.0,4.0,2.0,2.0,1,Fear,17.180883333333334,1
159,0,160.0,775.0,1,1,True,correct,True,1.0,13.0,4.0,2.0,2.0,1,Fear,17.180883333333334,1
160,0,161.0,1366.0,0,1,False,incorrect,True,0.0,14.0,4.0,2.0,2.0,1,Fear,17.180883333333334,1
161,0,162.0,142.0,1,1,True,incorrect,False,1.0,15.0,4.0,2.0,2.0,1,Fear,17.180883333333334,1
162,0,163.0,452.0,0,1,False,correct,False,0.0,16.0,4.0,2.0,2.0,1,Fear,17.180883333333334,1
163,0,164.0,539.0,1,1,True,correct,True,1.0,17.0,4.0,2.0,2.0,1,Fear,17.180883333333334,1
164,0,165.0,283.0,1,1,True,incorrect,False,2.0,18.0,4.0,2.0,2.0,1,Fear,17.180883333333334,1
165,0,166.0,2408.0,0,1,False,correct,False,0.0,19.0,4.0,2.0,2.0,1,Fear,17.180883333333334,1
166,0,167.0,882.0,1,1,True,correct,True,1.0,20.0,4.0,2.0,2.0,1,Fear,17.180883333333334,1
167,0,168.0,1676.0,0,1,False,incorrect,True,0.0,21.0,4.0,2.0,2.0,1,Fear,17.180883333333334,1
168,0,169.0,1597.0,0,1,False,incorrect,True,0.0,22.0,4.0,2.0,2.0,1,Fear,17.180883333333334,1
169,0,170.0,1169.0,1,1,True,correct,True,1.0,23.0,4.0,2.0,2.0,1,Fear,17.180883333333334,1
170,0,171.0,1041.0,1,1,True,correct,True,2.0,24.0,4.0,2.0,2.0,1,Fear,17.180883333333334,1
171,0,172.0,577.0,0,1,False,correct,False,0.0,25.0,4.0,2.0,2.0,1,Fear,17.180883333333334,1
172,0,173.0,179.0,0,1,False,incorrect,True,0.0,26.0,4.0,2.0,2.0,1,Fear,17.180883333333334,1
173,0,174.0,47.0,0,1,False,correct,False,0.0,27.0,4.0,2.0,2.0,1,Fear,17.180883333333334,1
174,0,175.0,349.0,0,1,False,incorrect,True,0.0,28.0,4.0,2.0,2.0,1,Fear,17.180883333333334,1
175,0,176.0,362.0,0,1,False,incorrect,True,0.0,29.0,4.0,2.0,2.0,1,Fear,17.180883333333334,1
176,0,177.0,447.0,1,1,True,correct,True,1.0,30.0,4.0,2.0,2.0,1,Fear,17.180883333333334,1
177,0,178.0,391.0,1,1,True,incorrect,False,2.0,31.0,4.0,2.0,2.0,1,Fear,17.180883333333334,1
178,0,179.0,708.0,0,1,False,incorrect,True,0.0,32.0,4.0,2.0,2.0,1,Fear,17.180883333333334,1
179,0,180.0,629.0,0,1,False,incorrect,True,0.0,33.0,4.0,2.0,2.0,1,Fear,17.180883333333334,1
180,0,181.0,1576.0,0,1,False,incorrect,True,0.0,34.0,4.0,2.0,2.0,1,Fear,17.180883333333334,1
181,0,182.0,329.0,0,1,False,incorrect,True,0.0,35.0,4.0,2.0,2.0,1,Fear,17.180883333333334,1
182,0,183.0,637.0,1,1,True,correct,True,1.0,36.0,4.0,2.0,2.0,1,Fear,17.180883333333334,1
183,0,184.0,698.0,1,1,True,incorrect,False,2.0,37.0,4.0,2.0,2.0,1,Fear,17.180883333333334,1
184,0,185.0,652.0,1,1,True,incorrect,False,3.0,38.0,4.0,2.0,2.0,1,Fear,17.180883333333334,1
185,0,186.0,349.0,1,1,True,incorrect,False,4.0,39.0,4.0,2.0,2.0,1,Fear,17.180883333333334,1
186,0,187.0,2.0,0,1,False,incorrect,True,0.0,40.0,4.0,2.0,2.0,1,Fear,17.180883333333334,1
187,0,188.0,4412.0,1,1,True,correct,True,1.0,41.0,4.0,2.0,2.0,1,Fear,17.180883333333334,1
188,0,189.0,476.0,1,1,True,correct,True,2.0,42.0,4.0,2.0,2.0,1,Fear,17.180883333333334,1
189,0,190.0,443.0,0,1,False,incorrect,True,0.0,43.0,4.0,2.0,2.0,1,Fear,17.180883333333334,1
190,0,191.0,393.0,0,1,False,incorrect,True,0.0,44.0,4.0,2.0,2.0,1,Fear,17.180883333333334,1
191,0,192.0,572.0,0,1,False,incorrect,True,0.0,45.0,4.0,2.0,2.0,1,Fear,17.180883333333334,1
192,0,193.0,704.0,1,1,True,correct,True,1.0,46.0,4.0,2.0,2.0,1,Fear,17.180883333333334,1
193,0,194.0,672.0,0,1,False,incorrect,True,0.0,47.0,4.0,2.0,2.0,1,Fear,17.180883333333334,1
194,0,195.0,754.0,0,1,False,incorrect,True,0.0,48.0,4.0,2.0,2.0,1,Fear,17.180883333333334,1
195,0,196.0,95.0,0,1,False,correct,False,0.0,49.0,4.0,2.0,2.0,1,Fear,17.180883333333334,1
196,0,197.0,1580.0,1,1,True,correct,True,1.0,50.0,4.0,2.0,2.0,1,Fear,17.180883333333334,1
197,0,198.0,565.0,0,1,False,incorrect,True,0.0,51.0,4.0,2.0,2.0,1,Fear,17.180883333333334,1
198,0,199.0,791.0,1,1,True,correct,True,1.0,52.0,4.0,2.0,2.0,1,Fear,17.180883333333334,1
199,0,200.0,521.0,0,1,False,incorrect,True,0.0,53.0,4.0,2.0,2.0,1,Fear,17.180883333333334,1
200,0,201.0,52.0,1,0,False,incorrect,True,0.0,,5.0,2.0,2.0,1,Fear,17.180883333333334,1
201,0,202.0,345.0,1,1,True,correct,True,1.0,,6.0,2.0,2.0,1,Fear,17.180883333333334,1
202,0,203.0,766.0,0,0,True,correct,True,1.0,,7.0,2.0,2.0,1,Fear,17.180883333333334,1
0,0,1.0,1181.0,0,0,True,correct,True,1.0,1.0,0.0,0.0,2.0,0,Points,10.826033333333333,0
1,0,2.0,952.0,0,0,True,correct,True,2.0,2.0,0.0,0.0,2.0,0,Points,10.826033333333333,0
2,0,3.0,496.0,0,0,True,incorrect,False,3.0,3.0,0.0,0.0,2.0,0,Points,10.826033333333333,0
3,0,4.0,753.0,1,0,False,incorrect,True,0.0,4.0,0.0,0.0,2.0,0,Points,10.826033333333333,0
4,0,5.0,617.0,0,0,True,correct,True,1.0,5.0,0.0,0.0,2.0,0,Points,10.826033333333333,0
5,0,6.0,508.0,0,0,True,correct,True,2.0,6.0,0.0,0.0,2.0,0,Points,10.826033333333333,0
6,0,7.0,512.0,0,0,True,correct,True,3.0,7.0,0.0,0.0,2.0,0,Points,10.826033333333333,0
7,0,8.0,444.0,0,0,True,correct,True,4.0,8.0,0.0,0.0,2.0,0,Points,10.826033333333333,0
8,0,9.0,439.0,0,0,True,correct,True,5.0,9.0,0.0,0.0,2.0,0,Points,10.826033333333333,0
9,0,10.0,800.0,0,0,True,correct,True,6.0,10.0,0.0,0.0,2.0,0,Points,10.826033333333333,0
10,0,11.0,690.0,0,1,False,incorrect,True,0.0,1.0,1.0,0.0,2.0,0,Points,10.826033333333333,0
11,0,12.0,967.0,0,1,False,incorrect,True,0.0,2.0,1.0,0.0,2.0,0,Points,10.826033333333333,0
12,0,13.0,692.0,1,1,True,incorrect,False,1.0,3.0,1.0,0.0,2.0,0,Points,10.826033333333333,0
13,0,14.0,455.0,1,1,True,correct,True,2.0,4.0,1.0,0.0,2.0,0,Points,10.826033333333333,0
14,0,15.0,481.0,1,1,True,correct,True,3.0,5.0,1.0,0.0,2.0,0,Points,10.826033333333333,0
15,0,16.0,2169.0,1,1,True,correct,True,4.0,6.0,1.0,0.0,2.0,0,Points,10.826033333333333,0
16,0,17.0,1262.0,1,1,True,correct,True,5.0,7.0,1.0,0.0,2.0,0,Points,10.826033333333333,0
17,0,18.0,741.0,1,1,True,correct,True,6.0,8.0,1.0,0.0,2.0,0,Points,10.826033333333333,0
18,0,19.0,701.0,1,0,False,correct,False,0.0,1.0,2.0,0.0,2.0,0,Points,10.826033333333333,0
19,0,20.0,488.0,1,0,False,incorrect,True,0.0,2.0,2.0,0.0,2.0,0,Points,10.826033333333333,0
20,0,21.0,482.0,0,0,True,incorrect,False,1.0,3.0,2.0,0.0,2.0,0,Points,10.826033333333333,0
21,0,22.0,1176.0,0,0,True,correct,True,2.0,4.0,2.0,0.0,2.0,0,Points,10.826033333333333,0
22,0,23.0,652.0,0,0,True,correct,True,3.0,5.0,2.0,0.0,2.0,0,Points,10.826033333333333,0
23,0,24.0,630.0,0,0,True,correct,True,4.0,6.0,2.0,0.0,2.0,0,Points,10.826033333333333,0
24,0,25.0,1082.0,0,0,True,correct,True,5.0,7.0,2.0,0.0,2.0,0,Points,10.826033333333333,0
25,0,26.0,441.0,0,0,True,correct,True,6.0,8.0,2.0,0.0,2.0,0,Points,10.826033333333333,0
26,0,27.0,422.0,0,1,False,incorrect,True,0.0,1.0,3.0,0.0,2.0,0,Points,10.826033333333333,0
27,0,28.0,498.0,1,1,True,correct,True,1.0,2.0,3.0,0.0,2.0,0,Points,10.826033333333333,0
28,0,29.0,685.0,1,1,True,correct,True,2.0,3.0,3.0,0.0,2.0,0,Points,10.826033333333333,0
29,0,30.0,575.0,1,1,True,incorrect,False,3.0,4.0,3.0,0.0,2.0,0,Points,10.826033333333333,0
30,0,31.0,1110.0,0,1,False,incorrect,True,0.0,5.0,3.0,0.0,2.0,0,Points,10.826033333333333,0
31,0,32.0,3775.0,0,1,False,incorrect,True,0.0,6.0,3.0,0.0,2.0,0,Points,10.826033333333333,0
32,0,33.0,1654.0,0,1,False,incorrect,True,0.0,7.0,3.0,0.0,2.0,0,Points,10.826033333333333,0
33,0,34.0,773.0,1,1,True,correct,True,1.0,8.0,3.0,0.0,2.0,0,Points,10.826033333333333,0
34,0,35.0,471.0,1,1,True,correct,True,2.0,9.0,3.0,0.0,2.0,0,Points,10.826033333333333,0
35,0,36.0,401.0,0,1,False,correct,False,0.0,10.0,3.0,0.0,2.0,0,Points,10.826033333333333,0
36,0,37.0,726.0,0,1,False,incorrect,True,0.0,11.0,3.0,0.0,2.0,0,Points,10.826033333333333,0
37,0,38.0,688.0,1,1,True,correct,True,1.0,12.0,3.0,0.0,2.0,0,Points,10.826033333333333,0
38,0,39.0,1774.0,1,1,True,correct,True,2.0,13.0,3.0,0.0,2.0,0,Points,10.826033333333333,0
39,0,40.0,433.0,1,1,True,correct,True,3.0,14.0,3.0,0.0,2.0,0,Points,10.826033333333333,0
40,0,41.0,569.0,1,1,True,correct,True,4.0,15.0,3.0,0.0,2.0,0,Points,10.826033333333333,0
41,0,42.0,568.0,1,1,True,correct,True,5.0,16.0,3.0,0.0,2.0,0,Points,10.826033333333333,0
42,0,43.0,514.0,1,1,True,correct,True,6.0,17.0,3.0,0.0,2.0,0,Points,10.826033333333333,0
43,0,44.0,513.0,1,0,False,correct,False,0.0,1.0,4.0,0.0,2.0,0,Points,10.826033333333333,0
44,0,45.0,582.0,0,0,True,correct,True,1.0,2.0,4.0,0.0,2.0,0,Points,10.826033333333333,0
45,0,46.0,581.0,0,0,True,incorrect,False,2.0,3.0,4.0,0.0,2.0,0,Points,10.826033333333333,0
46,0,47.0,1071.0,0,0,True,correct,True,3.0,4.0,4.0,0.0,2.0,0,Points,10.826033333333333,0
47,0,48.0,467.0,0,0,True,correct,True,4.0,5.0,4.0,0.0,2.0,0,Points,10.826033333333333,0
48,0,49.0,1175.0,0,0,True,correct,True,5.0,6.0,4.0,0.0,2.0,0,Points,10.826033333333333,0
49,0,50.0,450.0,0,0,True,correct,True,6.0,7.0,4.0,0.0,2.0,0,Points,10.826033333333333,0
50,0,51.0,531.0,0,1,False,incorrect,True,0.0,1.0,5.0,0.0,2.0,0,Points,10.826033333333333,0
51,0,52.0,1033.0,0,1,False,incorrect,True,0.0,2.0,5.0,0.0,2.0,0,Points,10.826033333333333,0
52,0,53.0,520.0,0,1,False,incorrect,True,0.0,3.0,5.0,0.0,2.0,0,Points,10.826033333333333,0
53,0,54.0,1081.0,1,1,True,correct,True,1.0,4.0,5.0,0.0,2.0,0,Points,10.826033333333333,0
54,0,55.0,2543.0,1,1,True,correct,True,2.0,5.0,5.0,0.0,2.0,0,Points,10.826033333333333,0
55,0,56.0,647.0,1,1,True,correct,True,3.0,6.0,5.0,0.0,2.0,0,Points,10.826033333333333,0
56,0,57.0,779.0,0,1,False,incorrect,True,0.0,7.0,5.0,0.0,2.0,0,Points,10.826033333333333,0
57,0,58.0,686.0,1,1,True,correct,True,1.0,8.0,5.0,0.0,2.0,0,Points,10.826033333333333,0
58,0,59.0,1096.0,1,1,True,correct,True,2.0,9.0,5.0,0.0,2.0,0,Points,10.826033333333333,0
59,0,60.0,355.0,0,1,False,incorrect,True,0.0,10.0,5.0,0.0,2.0,0,Points,10.826033333333333,0
60,0,61.0,603.0,1,1,True,correct,True,1.0,11.0,5.0,0.0,2.0,0,Points,10.826033333333333,0
61,0,62.0,1103.0,1,1,True,correct,True,2.0,12.0,5.0,0.0,2.0,0,Points,10.826033333333333,0
62,0,63.0,616.0,1,1,True,correct,True,3.0,13.0,5.0,0.0,2.0,0,Points,10.826033333333333,0
63,0,64.0,596.0,1,1,True,correct,True,4.0,14.0,5.0,0.0,2.0,0,Points,10.826033333333333,0
64,0,65.0,607.0,1,1,True,incorrect,False,5.0,15.0,5.0,0.0,2.0,0,Points,10.826033333333333,0
65,0,66.0,1117.0,0,1,False,incorrect,True,0.0,16.0,5.0,0.0,2.0,0,Points,10.826033333333333,0
66,0,67.0,625.0,1,1,True,correct,True,1.0,17.0,5.0,0.0,2.0,0,Points,10.826033333333333,0
67,0,68.0,625.0,1,1,True,correct,True,2.0,18.0,5.0,0.0,2.0,0,Points,10.826033333333333,0
68,0,69.0,580.0,1,1,True,correct,True,3.0,19.0,5.0,0.0,2.0,0,Points,10.826033333333333,0
69,0,70.0,467.0,1,1,True,correct,True,4.0,20.0,5.0,0.0,2.0,0,Points,10.826033333333333,0
70,0,71.0,712.0,0,1,False,correct,False,0.0,21.0,5.0,0.0,2.0,0,Points,10.826033333333333,0
71,0,72.0,409.0,0,1,False,incorrect,True,0.0,22.0,5.0,0.0,2.0,0,Points,10.826033333333333,0
72,0,73.0,1826.0,1,1,True,correct,True,1.0,23.0,5.0,0.0,2.0,0,Points,10.826033333333333,0
73,0,74.0,865.0,1,1,True,correct,True,2.0,24.0,5.0,0.0,2.0,0,Points,10.826033333333333,0
74,0,75.0,681.0,1,1,True,correct,True,3.0,25.0,5.0,0.0,2.0,0,Points,10.826033333333333,0
75,0,76.0,910.0,0,1,False,incorrect,True,0.0,26.0,5.0,0.0,2.0,0,Points,10.826033333333333,0
76,0,77.0,3927.0,1,1,True,incorrect,False,1.0,27.0,5.0,0.0,2.0,0,Points,10.826033333333333,0
77,0,78.0,1030.0,0,1,False,incorrect,True,0.0,28.0,5.0,0.0,2.0,0,Points,10.826033333333333,0
78,0,79.0,718.0,1,1,True,correct,True,1.0,29.0,5.0,0.0,2.0,0,Points,10.826033333333333,0
79,0,80.0,651.0,1,1,True,incorrect,False,2.0,30.0,5.0,0.0,2.0,0,Points,10.826033333333333,0
80,0,81.0,708.0,0,1,False,incorrect,True,0.0,31.0,5.0,0.0,2.0,0,Points,10.826033333333333,0
81,0,82.0,1504.0,1,1,True,correct,True,1.0,32.0,5.0,0.0,2.0,0,Points,10.826033333333333,0
82,0,83.0,1185.0,1,1,True,correct,True,2.0,33.0,5.0,0.0,2.0,0,Points,10.826033333333333,0
83,0,84.0,3246.0,1,1,True,correct,True,3.0,34.0,5.0,0.0,2.0,0,Points,10.826033333333333,0
84,0,85.0,1448.0,1,1,True,correct,True,4.0,35.0,5.0,0.0,2.0,0,Points,10.826033333333333,0
85,0,86.0,980.0,1,1,True,correct,True,5.0,36.0,5.0,0.0,2.0,0,Points,10.826033333333333,0
86,0,87.0,1212.0,1,1,True,correct,True,6.0,37.0,5.0,0.0,2.0,0,Points,10.826033333333333,0
87,0,88.0,952.0,1,0,False,correct,False,0.0,1.0,6.0,0.0,2.0,0,Points,10.826033333333333,0
88,0,89.0,800.0,1,0,False,incorrect,True,0.0,2.0,6.0,0.0,2.0,0,Points,10.826033333333333,0
89,0,90.0,1004.0,0,0,True,correct,True,1.0,3.0,6.0,0.0,2.0,0,Points,10.826033333333333,0
90,0,91.0,597.0,0,0,True,correct,True,2.0,4.0,6.0,0.0,2.0,0,Points,10.826033333333333,0
91,0,92.0,897.0,0,0,True,incorrect,False,3.0,5.0,6.0,0.0,2.0,0,Points,10.826033333333333,0
92,0,93.0,1629.0,0,0,True,correct,True,4.0,6.0,6.0,0.0,2.0,0,Points,10.826033333333333,0
93,0,94.0,547.0,0,0,True,correct,True,5.0,7.0,6.0,0.0,2.0,0,Points,10.826033333333333,0
94,0,95.0,956.0,0,0,True,incorrect,False,6.0,8.0,6.0,0.0,2.0,0,Points,10.826033333333333,0
95,0,96.0,836.0,1,1,True,correct,True,1.0,1.0,7.0,0.0,2.0,0,Points,10.826033333333333,0
96,0,97.0,3457.0,0,1,False,incorrect,True,0.0,2.0,7.0,0.0,2.0,0,Points,10.826033333333333,0
97,0,98.0,750.0,0,1,False,incorrect,True,0.0,3.0,7.0,0.0,2.0,0,Points,10.826033333333333,0
98,0,99.0,1272.0,1,1,True,incorrect,False,1.0,4.0,7.0,0.0,2.0,0,Points,10.826033333333333,0
99,0,100.0,443.0,1,1,True,correct,True,2.0,5.0,7.0,0.0,2.0,0,Points,10.826033333333333,0
100,0,101.0,1129.0,1,1,True,correct,True,3.0,6.0,7.0,0.0,2.0,0,Points,10.826033333333333,0
101,0,102.0,2562.0,1,1,True,correct,True,4.0,7.0,7.0,0.0,2.0,0,Points,10.826033333333333,0
102,0,103.0,937.0,0,1,False,incorrect,True,0.0,8.0,7.0,0.0,2.0,0,Points,10.826033333333333,0
103,0,104.0,632.0,0,1,False,incorrect,True,0.0,9.0,7.0,0.0,2.0,0,Points,10.826033333333333,0
104,0,105.0,1931.0,1,1,True,incorrect,False,1.0,10.0,7.0,0.0,2.0,0,Points,10.826033333333333,0
105,0,106.0,426.0,1,1,True,correct,True,2.0,11.0,7.0,0.0,2.0,0,Points,10.826033333333333,0
106,0,107.0,1082.0,0,1,False,incorrect,True,0.0,12.0,7.0,0.0,2.0,0,Points,10.826033333333333,0
107,0,108.0,2361.0,1,1,True,correct,True,1.0,13.0,7.0,0.0,2.0,0,Points,10.826033333333333,0
108,0,109.0,1349.0,1,1,True,correct,True,2.0,14.0,7.0,0.0,2.0,0,Points,10.826033333333333,0
109,0,110.0,1330.0,1,1,True,incorrect,False,3.0,15.0,7.0,0.0,2.0,0,Points,10.826033333333333,0
110,0,111.0,870.0,0,1,False,correct,False,0.0,16.0,7.0,0.0,2.0,0,Points,10.826033333333333,0
111,0,112.0,579.0,1,1,True,incorrect,False,1.0,17.0,7.0,0.0,2.0,0,Points,10.826033333333333,0
112,0,113.0,503.0,0,1,False,incorrect,True,0.0,18.0,7.0,0.0,2.0,0,Points,10.826033333333333,0
113,0,114.0,600.0,1,1,True,correct,True,1.0,19.0,7.0,0.0,2.0,0,Points,10.826033333333333,0
114,0,115.0,1817.0,1,1,True,correct,True,2.0,20.0,7.0,0.0,2.0,0,Points,10.826033333333333,0
115,0,116.0,1242.0,1,1,True,correct,True,3.0,21.0,7.0,0.0,2.0,0,Points,10.826033333333333,0
116,0,117.0,1073.0,1,1,True,correct,True,4.0,22.0,7.0,0.0,2.0,0,Points,10.826033333333333,0
117,0,118.0,960.0,1,1,True,correct,True,5.0,23.0,7.0,0.0,2.0,0,Points,10.826033333333333,0
118,0,119.0,687.0,0,1,False,incorrect,True,0.0,24.0,7.0,0.0,2.0,0,Points,10.826033333333333,0
119,0,120.0,1365.0,1,1,True,correct,True,1.0,25.0,7.0,0.0,2.0,0,Points,10.826033333333333,0
120,0,121.0,1347.0,0,1,False,incorrect,True,0.0,26.0,7.0,0.0,2.0,0,Points,10.826033333333333,0
121,0,122.0,2136.0,1,1,True,correct,True,1.0,27.0,7.0,0.0,2.0,0,Points,10.826033333333333,0
122,0,123.0,2365.0,1,1,True,incorrect,False,2.0,28.0,7.0,0.0,2.0,0,Points,10.826033333333333,0
123,0,124.0,1031.0,1,1,True,correct,True,3.0,29.0,7.0,0.0,2.0,0,Points,10.826033333333333,0
124,0,125.0,1789.0,1,1,True,correct,True,4.0,30.0,7.0,0.0,2.0,0,Points,10.826033333333333,0
125,0,126.0,1828.0,1,1,True,correct,True,5.0,31.0,7.0,0.0,2.0,0,Points,10.826033333333333,0
126,0,127.0,1070.0,1,1,True,correct,True,6.0,32.0,7.0,0.0,2.0,0,Points,10.826033333333333,0
0,0,1.0,1363.0,0,1,False,correct,False,0.0,1.0,0.0,0.0,3.0,0,Disgust,4.319983333333333,0
1,0,2.0,702.0,0,1,False,incorrect,True,0.0,2.0,0.0,0.0,3.0,0,Disgust,4.319983333333333,0
2,0,3.0,758.0,1,1,True,incorrect,False,1.0,3.0,0.0,0.0,3.0,0,Disgust,4.319983333333333,0
3,0,4.0,1566.0,1,1,True,correct,True,2.0,4.0,0.0,0.0,3.0,0,Disgust,4.319983333333333,0
4,0,5.0,668.0,1,1,True,correct,True,3.0,5.0,0.0,0.0,3.0,0,Disgust,4.319983333333333,0
5,0,6.0,705.0,1,1,True,correct,True,4.0,6.0,0.0,0.0,3.0,0,Disgust,4.319983333333333,0
6,0,7.0,585.0,1,1,True,correct,True,5.0,7.0,0.0,0.0,3.0,0,Disgust,4.319983333333333,0
7,0,8.0,864.0,1,0,False,correct,False,0.0,1.0,1.0,0.0,3.0,0,Disgust,4.319983333333333,0
8,0,9.0,528.0,1,0,False,incorrect,True,0.0,2.0,1.0,0.0,3.0,0,Disgust,4.319983333333333,0
9,0,10.0,726.0,1,0,False,incorrect,True,0.0,3.0,1.0,0.0,3.0,0,Disgust,4.319983333333333,0
10,0,11.0,576.0,1,0,False,incorrect,True,0.0,4.0,1.0,0.0,3.0,0,Disgust,4.319983333333333,0
11,0,12.0,816.0,0,0,True,correct,True,1.0,5.0,1.0,0.0,3.0,0,Disgust,4.319983333333333,0
12,0,13.0,698.0,0,0,True,correct,True,2.0,6.0,1.0,0.0,3.0,0,Disgust,4.319983333333333,0
13,0,14.0,732.0,0,0,True,correct,True,3.0,7.0,1.0,0.0,3.0,0,Disgust,4.319983333333333,0
14,0,15.0,452.0,0,0,True,incorrect,False,4.0,8.0,1.0,0.0,3.0,0,Disgust,4.319983333333333,0
15,0,16.0,672.0,0,0,True,incorrect,False,5.0,9.0,1.0,0.0,3.0,0,Disgust,4.319983333333333,0
16,0,17.0,735.0,1,1,True,incorrect,False,1.0,1.0,2.0,0.0,3.0,0,Disgust,4.319983333333333,0
17,0,18.0,911.0,0,1,False,incorrect,True,0.0,2.0,2.0,0.0,3.0,0,Disgust,4.319983333333333,0
18,0,19.0,608.0,0,1,False,incorrect,True,0.0,3.0,2.0,0.0,3.0,0,Disgust,4.319983333333333,0
19,0,20.0,674.0,1,1,True,correct,True,1.0,4.0,2.0,0.0,3.0,0,Disgust,4.319983333333333,0
20,0,21.0,662.0,1,1,True,incorrect,False,2.0,5.0,2.0,0.0,3.0,0,Disgust,4.319983333333333,0
21,0,22.0,851.0,1,1,True,correct,True,3.0,6.0,2.0,0.0,3.0,0,Disgust,4.319983333333333,0
22,0,23.0,596.0,1,1,True,correct,True,4.0,7.0,2.0,0.0,3.0,0,Disgust,4.319983333333333,0
23,0,24.0,556.0,1,1,True,correct,True,5.0,8.0,2.0,0.0,3.0,0,Disgust,4.319983333333333,0
24,0,25.0,463.0,1,0,False,incorrect,True,0.0,1.0,3.0,0.0,3.0,0,Disgust,4.319983333333333,0
25,0,26.0,833.0,1,0,False,incorrect,True,0.0,2.0,3.0,0.0,3.0,0,Disgust,4.319983333333333,0
26,0,27.0,418.0,0,0,True,correct,True,1.0,3.0,3.0,0.0,3.0,0,Disgust,4.319983333333333,0
27,0,28.0,568.0,0,0,True,correct,True,2.0,4.0,3.0,0.0,3.0,0,Disgust,4.319983333333333,0
28,0,29.0,565.0,0,0,True,correct,True,3.0,5.0,3.0,0.0,3.0,0,Disgust,4.319983333333333,0
29,0,30.0,520.0,0,0,True,correct,True,4.0,6.0,3.0,0.0,3.0,0,Disgust,4.319983333333333,0
30,0,31.0,524.0,0,0,True,correct,True,5.0,7.0,3.0,0.0,3.0,0,Disgust,4.319983333333333,0
31,0,32.0,461.0,0,1,False,incorrect,True,0.0,1.0,4.0,0.0,3.0,0,Disgust,4.319983333333333,0
32,0,33.0,442.0,0,1,False,incorrect,True,0.0,2.0,4.0,0.0,3.0,0,Disgust,4.319983333333333,0
33,0,34.0,524.0,1,1,True,correct,True,1.0,3.0,4.0,0.0,3.0,0,Disgust,4.319983333333333,0
34,0,35.0,542.0,1,1,True,incorrect,False,2.0,4.0,4.0,0.0,3.0,0,Disgust,4.319983333333333,0
35,0,36.0,496.0,1,1,True,correct,True,3.0,5.0,4.0,0.0,3.0,0,Disgust,4.319983333333333,0
36,0,37.0,469.0,0,1,False,correct,False,0.0,6.0,4.0,0.0,3.0,0,Disgust,4.319983333333333,0
37,0,38.0,543.0,0,1,False,incorrect,True,0.0,7.0,4.0,0.0,3.0,0,Disgust,4.319983333333333,0
38,0,39.0,562.0,0,1,False,incorrect,True,0.0,8.0,4.0,0.0,3.0,0,Disgust,4.319983333333333,0
39,0,40.0,508.0,1,1,True,correct,True,1.0,9.0,4.0,0.0,3.0,0,Disgust,4.319983333333333,0
40,0,41.0,774.0,1,1,True,incorrect,False,2.0,10.0,4.0,0.0,3.0,0,Disgust,4.319983333333333,0
41,0,42.0,618.0,1,1,True,correct,True,3.0,11.0,4.0,0.0,3.0,0,Disgust,4.319983333333333,0
42,0,43.0,878.0,1,1,True,correct,True,4.0,12.0,4.0,0.0,3.0,0,Disgust,4.319983333333333,0
43,0,44.0,555.0,1,1,True,correct,True,5.0,13.0,4.0,0.0,3.0,0,Disgust,4.319983333333333,0
44,0,45.0,474.0,1,0,False,incorrect,True,0.0,1.0,5.0,0.0,3.0,0,Disgust,4.319983333333333,0
45,0,46.0,677.0,0,0,True,correct,True,1.0,2.0,5.0,0.0,3.0,0,Disgust,4.319983333333333,0
46,0,47.0,577.0,1,0,False,incorrect,True,0.0,3.0,5.0,0.0,3.0,0,Disgust,4.319983333333333,0
47,0,48.0,652.0,0,0,True,correct,True,1.0,4.0,5.0,0.0,3.0,0,Disgust,4.319983333333333,0
48,0,49.0,606.0,0,0,True,correct,True,2.0,5.0,5.0,0.0,3.0,0,Disgust,4.319983333333333,0
49,0,50.0,647.0,0,0,True,incorrect,False,3.0,6.0,5.0,0.0,3.0,0,Disgust,4.319983333333333,0
50,0,51.0,675.0,1,0,False,correct,False,0.0,7.0,5.0,0.0,3.0,0,Disgust,4.319983333333333,0
51,0,52.0,511.0,1,0,False,incorrect,True,0.0,8.0,5.0,0.0,3.0,0,Disgust,4.319983333333333,0
52,0,53.0,512.0,1,0,False,correct,False,0.0,9.0,5.0,0.0,3.0,0,Disgust,4.319983333333333,0
53,0,54.0,527.0,1,0,False,incorrect,True,0.0,10.0,5.0,0.0,3.0,0,Disgust,4.319983333333333,0
54,0,55.0,758.0,1,0,False,incorrect,True,0.0,11.0,5.0,0.0,3.0,0,Disgust,4.319983333333333,0
55,0,56.0,855.0,1,0,False,incorrect,True,0.0,12.0,5.0,0.0,3.0,0,Disgust,4.319983333333333,0
56,0,57.0,664.0,0,0,True,incorrect,False,1.0,13.0,5.0,0.0,3.0,0,Disgust,4.319983333333333,0
57,0,58.0,630.0,1,0,False,incorrect,True,0.0,14.0,5.0,0.0,3.0,0,Disgust,4.319983333333333,0
58,0,59.0,574.0,0,0,True,correct,True,1.0,15.0,5.0,0.0,3.0,0,Disgust,4.319983333333333,0
59,0,60.0,580.0,0,0,True,correct,True,2.0,16.0,5.0,0.0,3.0,0,Disgust,4.319983333333333,0
60,0,61.0,698.0,0,0,True,correct,True,3.0,17.0,5.0,0.0,3.0,0,Disgust,4.319983333333333,0
61,0,62.0,520.0,0,0,True,correct,True,4.0,18.0,5.0,0.0,3.0,0,Disgust,4.319983333333333,0
62,0,63.0,612.0,0,0,True,incorrect,False,5.0,19.0,5.0,0.0,3.0,0,Disgust,4.319983333333333,0
63,0,64.0,761.0,1,1,True,incorrect,False,1.0,1.0,6.0,0.0,3.0,0,Disgust,4.319983333333333,0
64,0,65.0,606.0,0,1,False,incorrect,True,0.0,2.0,6.0,0.0,3.0,0,Disgust,4.319983333333333,0
65,0,66.0,493.0,0,1,False,incorrect,True,0.0,3.0,6.0,0.0,3.0,0,Disgust,4.319983333333333,0
66,0,67.0,513.0,1,1,True,correct,True,1.0,4.0,6.0,0.0,3.0,0,Disgust,4.319983333333333,0
67,0,68.0,466.0,1,1,True,correct,True,2.0,5.0,6.0,0.0,3.0,0,Disgust,4.319983333333333,0
68,0,69.0,544.0,1,1,True,correct,True,3.0,6.0,6.0,0.0,3.0,0,Disgust,4.319983333333333,0
69,0,70.0,662.0,1,1,True,correct,True,4.0,7.0,6.0,0.0,3.0,0,Disgust,4.319983333333333,0
70,0,71.0,527.0,1,1,True,correct,True,5.0,8.0,6.0,0.0,3.0,0,Disgust,4.319983333333333,0
71,0,72.0,467.0,0,0,True,correct,True,1.0,1.0,7.0,0.0,3.0,0,Disgust,4.319983333333333,0
72,0,73.0,411.0,0,0,True,correct,True,2.0,2.0,7.0,0.0,3.0,0,Disgust,4.319983333333333,0
73,0,74.0,441.0,0,0,True,incorrect,False,3.0,3.0,7.0,0.0,3.0,0,Disgust,4.319983333333333,0
74,0,75.0,674.0,1,0,False,incorrect,True,0.0,4.0,7.0,0.0,3.0,0,Disgust,4.319983333333333,0
75,0,76.0,546.0,0,0,True,incorrect,False,1.0,5.0,7.0,0.0,3.0,0,Disgust,4.319983333333333,0
76,0,77.0,573.0,0,0,True,correct,True,2.0,6.0,7.0,0.0,3.0,0,Disgust,4.319983333333333,0
77,0,78.0,613.0,0,0,True,correct,True,3.0,7.0,7.0,0.0,3.0,0,Disgust,4.319983333333333,0
78,0,79.0,565.0,0,0,True,correct,True,4.0,8.0,7.0,0.0,3.0,0,Disgust,4.319983333333333,0
79,0,80.0,477.0,0,0,True,correct,True,5.0,9.0,7.0,0.0,3.0,0,Disgust,4.319983333333333,0
0,0,1.0,1664.0,1,0,False,correct,False,0.0,1.0,0.0,1.0,3.0,0,Fear,5.349083333333334,0
1,0,2.0,557.0,1,0,False,correct,False,0.0,2.0,0.0,1.0,3.0,0,Fear,5.349083333333334,0
2,0,3.0,514.0,1,0,False,incorrect,True,0.0,3.0,0.0,1.0,3.0,0,Fear,5.349083333333334,0
3,0,4.0,502.0,0,0,True,correct,True,1.0,4.0,0.0,1.0,3.0,0,Fear,5.349083333333334,0
4,0,5.0,695.0,0,0,True,correct,True,2.0,5.0,0.0,1.0,3.0,0,Fear,5.349083333333334,0
5,0,6.0,482.0,0,0,True,correct,True,3.0,6.0,0.0,1.0,3.0,0,Fear,5.349083333333334,0
6,0,7.0,536.0,0,0,True,correct,True,4.0,7.0,0.0,1.0,3.0,0,Fear,5.349083333333334,0
7,0,8.0,622.0,0,0,True,correct,True,5.0,8.0,0.0,1.0,3.0,0,Fear,5.349083333333334,0
8,0,9.0,567.0,0,1,False,incorrect,True,0.0,1.0,1.0,1.0,3.0,0,Fear,5.349083333333334,0
9,0,10.0,577.0,0,1,False,incorrect,True,0.0,2.0,1.0,1.0,3.0,0,Fear,5.349083333333334,0
10,0,11.0,639.0,1,1,True,correct,True,1.0,3.0,1.0,1.0,3.0,0,Fear,5.349083333333334,0
11,0,12.0,611.0,1,1,True,incorrect,False,2.0,4.0,1.0,1.0,3.0,0,Fear,5.349083333333334,0
12,0,13.0,707.0,1,1,True,incorrect,False,3.0,5.0,1.0,1.0,3.0,0,Fear,5.349083333333334,0
13,0,14.0,345.0,1,1,True,incorrect,False,4.0,6.0,1.0,1.0,3.0,0,Fear,5.349083333333334,0
14,0,15.0,578.0,0,1,False,correct,False,0.0,7.0,1.0,1.0,3.0,0,Fear,5.349083333333334,0
15,0,16.0,489.0,0,1,False,incorrect,True,0.0,8.0,1.0,1.0,3.0,0,Fear,5.349083333333334,0
16,0,17.0,650.0,1,1,True,correct,True,1.0,9.0,1.0,1.0,3.0,0,Fear,5.349083333333334,0
17,0,18.0,540.0,1,1,True,correct,True,2.0,10.0,1.0,1.0,3.0,0,Fear,5.349083333333334,0
18,0,19.0,540.0,1,1,True,correct,True,3.0,11.0,1.0,1.0,3.0,0,Fear,5.349083333333334,0
19,0,20.0,478.0,1,1,True,correct,True,4.0,12.0,1.0,1.0,3.0,0,Fear,5.349083333333334,0
20,0,21.0,667.0,1,1,True,correct,True,5.0,13.0,1.0,1.0,3.0,0,Fear,5.349083333333334,0
21,0,22.0,475.0,1,0,False,incorrect,True,0.0,1.0,2.0,1.0,3.0,0,Fear,5.349083333333334,0
22,0,23.0,397.0,1,0,False,incorrect,True,0.0,2.0,2.0,1.0,3.0,0,Fear,5.349083333333334,0
23,0,24.0,524.0,0,0,True,correct,True,1.0,3.0,2.0,1.0,3.0,0,Fear,5.349083333333334,0
24,0,25.0,573.0,0,0,True,incorrect,False,2.0,4.0,2.0,1.0,3.0,0,Fear,5.349083333333334,0
25,0,26.0,507.0,0,0,True,correct,True,3.0,5.0,2.0,1.0,3.0,0,Fear,5.349083333333334,0
26,0,27.0,572.0,0,0,True,correct,True,4.0,6.0,2.0,1.0,3.0,0,Fear,5.349083333333334,0
27,0,28.0,562.0,0,0,True,correct,True,5.0,7.0,2.0,1.0,3.0,0,Fear,5.349083333333334,0
28,0,29.0,635.0,0,1,False,incorrect,True,0.0,1.0,3.0,1.0,3.0,0,Fear,5.349083333333334,0
29,0,30.0,461.0,1,1,True,incorrect,False,1.0,2.0,3.0,1.0,3.0,0,Fear,5.349083333333334,0
30,0,31.0,585.0,0,1,False,incorrect,True,0.0,3.0,3.0,1.0,3.0,0,Fear,5.349083333333334,0
31,0,32.0,623.0,1,1,True,incorrect,False,1.0,4.0,3.0,1.0,3.0,0,Fear,5.349083333333334,0
32,0,33.0,568.0,1,1,True,incorrect,False,2.0,5.0,3.0,1.0,3.0,0,Fear,5.349083333333334,0
33,0,34.0,440.0,0,1,False,incorrect,True,0.0,6.0,3.0,1.0,3.0,0,Fear,5.349083333333334,0
34,0,35.0,550.0,0,1,False,incorrect,True,0.0,7.0,3.0,1.0,3.0,0,Fear,5.349083333333334,0
35,0,36.0,533.0,0,1,False,incorrect,True,0.0,8.0,3.0,1.0,3.0,0,Fear,5.349083333333334,0
36,0,37.0,541.0,1,1,True,incorrect,False,1.0,9.0,3.0,1.0,3.0,0,Fear,5.349083333333334,0
37,0,38.0,462.0,0,1,False,incorrect,True,0.0,10.0,3.0,1.0,3.0,0,Fear,5.349083333333334,0
38,0,39.0,2581.0,1,1,True,correct,True,1.0,11.0,3.0,1.0,3.0,0,Fear,5.349083333333334,0
39,0,40.0,511.0,1,1,True,correct,True,2.0,12.0,3.0,1.0,3.0,0,Fear,5.349083333333334,0
40,0,41.0,2931.0,1,1,True,incorrect,False,3.0,13.0,3.0,1.0,3.0,0,Fear,5.349083333333334,0
41,0,42.0,566.0,1,1,True,correct,True,4.0,14.0,3.0,1.0,3.0,0,Fear,5.349083333333334,0
42,0,43.0,697.0,1,1,True,incorrect,False,5.0,15.0,3.0,1.0,3.0,0,Fear,5.349083333333334,0
43,0,44.0,532.0,0,0,True,incorrect,False,1.0,1.0,4.0,1.0,3.0,0,Fear,5.349083333333334,0
44,0,45.0,889.0,1,0,False,incorrect,True,0.0,2.0,4.0,1.0,3.0,0,Fear,5.349083333333334,0
45,0,46.0,548.0,1,0,False,incorrect,True,0.0,3.0,4.0,1.0,3.0,0,Fear,5.349083333333334,0
46,0,47.0,635.0,0,0,True,incorrect,False,1.0,4.0,4.0,1.0,3.0,0,Fear,5.349083333333334,0
47,0,48.0,449.0,0,0,True,correct,True,2.0,5.0,4.0,1.0,3.0,0,Fear,5.349083333333334,0
48,0,49.0,612.0,0,0,True,incorrect,False,3.0,6.0,4.0,1.0,3.0,0,Fear,5.349083333333334,0
49,0,50.0,735.0,0,0,True,correct,True,4.0,7.0,4.0,1.0,3.0,0,Fear,5.349083333333334,0
50,0,51.0,716.0,0,0,True,correct,True,5.0,8.0,4.0,1.0,3.0,0,Fear,5.349083333333334,0
51,0,52.0,600.0,0,1,False,incorrect,True,0.0,1.0,5.0,1.0,3.0,0,Fear,5.349083333333334,0
52,0,53.0,530.0,0,1,False,incorrect,True,0.0,2.0,5.0,1.0,3.0,0,Fear,5.349083333333334,0
53,0,54.0,563.0,0,1,False,incorrect,True,0.0,3.0,5.0,1.0,3.0,0,Fear,5.349083333333334,0
54,0,55.0,437.0,1,1,True,correct,True,1.0,4.0,5.0,1.0,3.0,0,Fear,5.349083333333334,0
55,0,56.0,430.0,1,1,True,correct,True,2.0,5.0,5.0,1.0,3.0,0,Fear,5.349083333333334,0
56,0,57.0,383.0,1,1,True,correct,True,3.0,6.0,5.0,1.0,3.0,0,Fear,5.349083333333334,0
57,0,58.0,545.0,1,1,True,correct,True,4.0,7.0,5.0,1.0,3.0,0,Fear,5.349083333333334,0
58,0,59.0,442.0,1,1,True,correct,True,5.0,8.0,5.0,1.0,3.0,0,Fear,5.349083333333334,0
59,0,60.0,463.0,1,0,False,incorrect,True,0.0,1.0,6.0,1.0,3.0,0,Fear,5.349083333333334,0
60,0,61.0,557.0,1,0,False,correct,False,0.0,2.0,6.0,1.0,3.0,0,Fear,5.349083333333334,0
61,0,62.0,482.0,1,0,False,incorrect,True,0.0,3.0,6.0,1.0,3.0,0,Fear,5.349083333333334,0
62,0,63.0,473.0,1,0,False,incorrect,True,0.0,4.0,6.0,1.0,3.0,0,Fear,5.349083333333334,0
63,0,64.0,520.0,0,0,True,incorrect,False,1.0,5.0,6.0,1.0,3.0,0,Fear,5.349083333333334,0
64,0,65.0,453.0,1,0,False,correct,False,0.0,6.0,6.0,1.0,3.0,0,Fear,5.349083333333334,0
65,0,66.0,515.0,1,0,False,incorrect,True,0.0,7.0,6.0,1.0,3.0,0,Fear,5.349083333333334,0
66,0,67.0,431.0,1,0,False,correct,False,0.0,8.0,6.0,1.0,3.0,0,Fear,5.349083333333334,0
67,0,68.0,483.0,1,0,False,incorrect,True,0.0,9.0,6.0,1.0,3.0,0,Fear,5.349083333333334,0
68,0,69.0,468.0,1,0,False,incorrect,True,0.0,10.0,6.0,1.0,3.0,0,Fear,5.349083333333334,0
69,0,70.0,496.0,0,0,True,incorrect,False,1.0,11.0,6.0,1.0,3.0,0,Fear,5.349083333333334,0
70,0,71.0,721.0,1,0,False,incorrect,True,0.0,12.0,6.0,1.0,3.0,0,Fear,5.349083333333334,0
71,0,72.0,421.0,1,0,False,incorrect,True,0.0,13.0,6.0,1.0,3.0,0,Fear,5.349083333333334,0
72,0,73.0,430.0,1,0,False,incorrect,True,0.0,14.0,6.0,1.0,3.0,0,Fear,5.349083333333334,0
73,0,74.0,532.0,0,0,True,correct,True,1.0,15.0,6.0,1.0,3.0,0,Fear,5.349083333333334,0
74,0,75.0,577.0,0,0,True,correct,True,2.0,16.0,6.0,1.0,3.0,0,Fear,5.349083333333334,0
75,0,76.0,498.0,1,0,False,incorrect,True,0.0,17.0,6.0,1.0,3.0,0,Fear,5.349083333333334,0
76,0,77.0,587.0,0,0,True,incorrect,False,1.0,18.0,6.0,1.0,3.0,0,Fear,5.349083333333334,0
77,0,78.0,581.0,1,0,False,incorrect,True,0.0,19.0,6.0,1.0,3.0,0,Fear,5.349083333333334,0
78,0,79.0,583.0,0,0,True,incorrect,False,1.0,20.0,6.0,1.0,3.0,0,Fear,5.349083333333334,0
79,0,80.0,464.0,0,0,True,incorrect,False,2.0,21.0,6.0,1.0,3.0,0,Fear,5.349083333333334,0
80,0,81.0,849.0,1,0,False,incorrect,True,0.0,22.0,6.0,1.0,3.0,0,Fear,5.349083333333334,0
81,0,82.0,748.0,0,0,True,incorrect,False,1.0,23.0,6.0,1.0,3.0,0,Fear,5.349083333333334,0
82,0,83.0,547.0,1,0,False,incorrect,True,0.0,24.0,6.0,1.0,3.0,0,Fear,5.349083333333334,0
83,0,84.0,556.0,1,0,False,incorrect,True,0.0,25.0,6.0,1.0,3.0,0,Fear,5.349083333333334,0
84,0,85.0,511.0,1,0,False,incorrect,True,0.0,26.0,6.0,1.0,3.0,0,Fear,5.349083333333334,0
85,0,86.0,441.0,0,0,True,incorrect,False,1.0,27.0,6.0,1.0,3.0,0,Fear,5.349083333333334,0
86,0,87.0,831.0,1,0,False,incorrect,True,0.0,28.0,6.0,1.0,3.0,0,Fear,5.349083333333334,0
87,0,88.0,372.0,1,0,False,incorrect,True,0.0,29.0,6.0,1.0,3.0,0,Fear,5.349083333333334,0
88,0,89.0,404.0,0,0,True,correct,True,1.0,30.0,6.0,1.0,3.0,0,Fear,5.349083333333334,0
89,0,90.0,562.0,0,0,True,correct,True,2.0,31.0,6.0,1.0,3.0,0,Fear,5.349083333333334,0
90,0,91.0,532.0,0,0,True,correct,True,3.0,32.0,6.0,1.0,3.0,0,Fear,5.349083333333334,0
91,0,92.0,443.0,0,0,True,correct,True,4.0,33.0,6.0,1.0,3.0,0,Fear,5.349083333333334,0
92,0,93.0,575.0,0,0,True,correct,True,5.0,34.0,6.0,1.0,3.0,0,Fear,5.349083333333334,0
93,0,94.0,456.0,0,1,False,incorrect,True,0.0,1.0,7.0,1.0,3.0,0,Fear,5.349083333333334,0
94,0,95.0,479.0,0,1,False,incorrect,True,0.0,2.0,7.0,1.0,3.0,0,Fear,5.349083333333334,0
95,0,96.0,546.0,1,1,True,correct,True,1.0,3.0,7.0,1.0,3.0,0,Fear,5.349083333333334,0
96,0,97.0,518.0,1,1,True,correct,True,2.0,4.0,7.0,1.0,3.0,0,Fear,5.349083333333334,0
97,0,98.0,528.0,1,1,True,correct,True,3.0,5.0,7.0,1.0,3.0,0,Fear,5.349083333333334,0
98,0,99.0,463.0,1,1,True,correct,True,4.0,6.0,7.0,1.0,3.0,0,Fear,5.349083333333334,0
99,0,100.0,477.0,1,1,True,correct,True,5.0,7.0,7.0,1.0,3.0,0,Fear,5.349083333333334,0
0,0,1.0,2287.0,1,1,True,incorrect,False,1.0,1.0,0.0,2.0,3.0,0,Points,3.8920166666666667,0
1,0,2.0,778.0,0,1,False,incorrect,True,0.0,2.0,0.0,2.0,3.0,0,Points,3.8920166666666667,0
2,0,3.0,819.0,0,1,False,incorrect,True,0.0,3.0,0.0,2.0,3.0,0,Points,3.8920166666666667,0
3,0,4.0,514.0,1,1,True,correct,True,1.0,4.0,0.0,2.0,3.0,0,Points,3.8920166666666667,0
4,0,5.0,683.0,1,1,True,correct,True,2.0,5.0,0.0,2.0,3.0,0,Points,3.8920166666666667,0
5,0,6.0,561.0,1,1,True,correct,True,3.0,6.0,0.0,2.0,3.0,0,Points,3.8920166666666667,0
6,0,7.0,457.0,1,1,True,correct,True,4.0,7.0,0.0,2.0,3.0,0,Points,3.8920166666666667,0
7,0,8.0,478.0,1,1,True,correct,True,5.0,8.0,0.0,2.0,3.0,0,Points,3.8920166666666667,0
8,0,9.0,464.0,1,0,False,incorrect,True,0.0,1.0,1.0,2.0,3.0,0,Points,3.8920166666666667,0
9,0,10.0,623.0,1,0,False,incorrect,True,0.0,2.0,1.0,2.0,3.0,0,Points,3.8920166666666667,0
10,0,11.0,552.0,0,0,True,correct,True,1.0,3.0,1.0,2.0,3.0,0,Points,3.8920166666666667,0
11,0,12.0,622.0,0,0,True,correct,True,2.0,4.0,1.0,2.0,3.0,0,Points,3.8920166666666667,0
12,0,13.0,538.0,0,0,True,correct,True,3.0,5.0,1.0,2.0,3.0,0,Points,3.8920166666666667,0
13,0,14.0,604.0,0,0,True,correct,True,4.0,6.0,1.0,2.0,3.0,0,Points,3.8920166666666667,0
14,0,15.0,588.0,0,0,True,correct,True,5.0,7.0,1.0,2.0,3.0,0,Points,3.8920166666666667,0
15,0,16.0,570.0,0,1,False,incorrect,True,0.0,1.0,2.0,2.0,3.0,0,Points,3.8920166666666667,0
16,0,17.0,519.0,1,1,True,correct,True,1.0,2.0,2.0,2.0,3.0,0,Points,3.8920166666666667,0
17,0,18.0,472.0,1,1,True,correct,True,2.0,3.0,2.0,2.0,3.0,0,Points,3.8920166666666667,0
18,0,19.0,668.0,1,1,True,correct,True,3.0,4.0,2.0,2.0,3.0,0,Points,3.8920166666666667,0
19,0,20.0,621.0,1,1,True,correct,True,4.0,5.0,2.0,2.0,3.0,0,Points,3.8920166666666667,0
20,0,21.0,604.0,1,1,True,correct,True,5.0,6.0,2.0,2.0,3.0,0,Points,3.8920166666666667,0
21,0,22.0,612.0,1,0,False,incorrect,True,0.0,1.0,3.0,2.0,3.0,0,Points,3.8920166666666667,0
22,0,23.0,628.0,0,0,True,correct,True,1.0,2.0,3.0,2.0,3.0,0,Points,3.8920166666666667,0
23,0,24.0,460.0,0,0,True,correct,True,2.0,3.0,3.0,2.0,3.0,0,Points,3.8920166666666667,0
24,0,25.0,482.0,0,0,True,correct,True,3.0,4.0,3.0,2.0,3.0,0,Points,3.8920166666666667,0
25,0,26.0,536.0,0,0,True,correct,True,4.0,5.0,3.0,2.0,3.0,0,Points,3.8920166666666667,0
26,0,27.0,501.0,0,0,True,correct,True,5.0,6.0,3.0,2.0,3.0,0,Points,3.8920166666666667,0
27,0,28.0,569.0,0,1,False,incorrect,True,0.0,1.0,4.0,2.0,3.0,0,Points,3.8920166666666667,0
28,0,29.0,520.0,1,1,True,correct,True,1.0,2.0,4.0,2.0,3.0,0,Points,3.8920166666666667,0
29,0,30.0,447.0,1,1,True,correct,True,2.0,3.0,4.0,2.0,3.0,0,Points,3.8920166666666667,0
30,0,31.0,470.0,1,1,True,correct,True,3.0,4.0,4.0,2.0,3.0,0,Points,3.8920166666666667,0
31,0,32.0,573.0,1,1,True,correct,True,4.0,5.0,4.0,2.0,3.0,0,Points,3.8920166666666667,0
32,0,33.0,457.0,1,1,True,correct,True,5.0,6.0,4.0,2.0,3.0,0,Points,3.8920166666666667,0
33,0,34.0,433.0,1,0,False,incorrect,True,0.0,1.0,5.0,2.0,3.0,0,Points,3.8920166666666667,0
34,0,35.0,671.0,1,0,False,incorrect,True,0.0,2.0,5.0,2.0,3.0,0,Points,3.8920166666666667,0
35,0,36.0,591.0,0,0,True,correct,True,1.0,3.0,5.0,2.0,3.0,0,Points,3.8920166666666667,0
36,0,37.0,505.0,0,0,True,correct,True,2.0,4.0,5.0,2.0,3.0,0,Points,3.8920166666666667,0
37,0,38.0,455.0,0,0,True,correct,True,3.0,5.0,5.0,2.0,3.0,0,Points,3.8920166666666667,0
38,0,39.0,485.0,0,0,True,correct,True,4.0,6.0,5.0,2.0,3.0,0,Points,3.8920166666666667,0
39,0,40.0,504.0,0,0,True,correct,True,5.0,7.0,5.0,2.0,3.0,0,Points,3.8920166666666667,0
40,0,41.0,701.0,0,1,False,incorrect,True,0.0,1.0,6.0,2.0,3.0,0,Points,3.8920166666666667,0
41,0,42.0,678.0,1,1,True,correct,True,1.0,2.0,6.0,2.0,3.0,0,Points,3.8920166666666667,0
42,0,43.0,475.0,1,1,True,correct,True,2.0,3.0,6.0,2.0,3.0,0,Points,3.8920166666666667,0
43,0,44.0,608.0,1,1,True,correct,True,3.0,4.0,6.0,2.0,3.0,0,Points,3.8920166666666667,0
44,0,45.0,497.0,1,1,True,correct,True,4.0,5.0,6.0,2.0,3.0,0,Points,3.8920166666666667,0
45,0,46.0,490.0,1,1,True,correct,True,5.0,6.0,6.0,2.0,3.0,0,Points,3.8920166666666667,0
46,0,47.0,523.0,1,0,False,incorrect,True,0.0,1.0,7.0,2.0,3.0,0,Points,3.8920166666666667,0
47,0,48.0,516.0,0,0,True,incorrect,False,1.0,2.0,7.0,2.0,3.0,0,Points,3.8920166666666667,0
48,0,49.0,701.0,1,0,False,incorrect,True,0.0,3.0,7.0,2.0,3.0,0,Points,3.8920166666666667,0
49,0,50.0,532.0,1,0,False,incorrect,True,0.0,4.0,7.0,2.0,3.0,0,Points,3.8920166666666667,0
50,0,51.0,1553.0,0,0,True,incorrect,False,1.0,5.0,7.0,2.0,3.0,0,Points,3.8920166666666667,0
51,0,52.0,665.0,1,0,False,incorrect,True,0.0,6.0,7.0,2.0,3.0,0,Points,3.8920166666666667,0
52,0,53.0,436.0,1,0,False,incorrect,True,0.0,7.0,7.0,2.0,3.0,0,Points,3.8920166666666667,0
53,0,54.0,805.0,0,0,True,correct,True,1.0,8.0,7.0,2.0,3.0,0,Points,3.8920166666666667,0
54,0,55.0,511.0,0,0,True,correct,True,2.0,9.0,7.0,2.0,3.0,0,Points,3.8920166666666667,0
55,0,56.0,491.0,0,0,True,correct,True,3.0,10.0,7.0,2.0,3.0,0,Points,3.8920166666666667,0
56,0,57.0,569.0,0,0,True,incorrect,False,4.0,11.0,7.0,2.0,3.0,0,Points,3.8920166666666667,0
57,0,58.0,681.0,1,0,False,correct,False,0.0,12.0,7.0,2.0,3.0,0,Points,3.8920166666666667,0
58,0,59.0,657.0,1,0,False,incorrect,True,0.0,13.0,7.0,2.0,3.0,0,Points,3.8920166666666667,0
59,0,60.0,431.0,1,0,False,incorrect,True,0.0,14.0,7.0,2.0,3.0,0,Points,3.8920166666666667,0
60,0,61.0,679.0,0,0,True,incorrect,False,1.0,15.0,7.0,2.0,3.0,0,Points,3.8920166666666667,0
61,0,62.0,562.0,1,0,False,incorrect,True,0.0,16.0,7.0,2.0,3.0,0,Points,3.8920166666666667,0
62,0,63.0,614.0,1,0,False,incorrect,True,0.0,17.0,7.0,2.0,3.0,0,Points,3.8920166666666667,0
63,0,64.0,658.0,1,0,False,incorrect,True,0.0,18.0,7.0,2.0,3.0,0,Points,3.8920166666666667,0
64,0,65.0,453.0,0,0,True,incorrect,False,1.0,19.0,7.0,2.0,3.0,0,Points,3.8920166666666667,0
65,0,66.0,573.0,1,0,False,correct,False,0.0,20.0,7.0,2.0,3.0,0,Points,3.8920166666666667,0
66,0,67.0,685.0,1,0,False,incorrect,True,0.0,21.0,7.0,2.0,3.0,0,Points,3.8920166666666667,0
67,0,68.0,590.0,1,0,False,incorrect,True,0.0,22.0,7.0,2.0,3.0,0,Points,3.8920166666666667,0
68,0,69.0,630.0,0,0,True,incorrect,False,1.0,23.0,7.0,2.0,3.0,0,Points,3.8920166666666667,0
69,0,70.0,588.0,0,0,True,correct,True,2.0,24.0,7.0,2.0,3.0,0,Points,3.8920166666666667,0
70,0,71.0,445.0,0,0,True,correct,True,3.0,25.0,7.0,2.0,3.0,0,Points,3.8920166666666667,0
71,0,72.0,512.0,0,0,True,correct,True,4.0,26.0,7.0,2.0,3.0,0,Points,3.8920166666666667,0
72,0,73.0,483.0,0,0,True,incorrect,False,5.0,27.0,7.0,2.0,3.0,0,Points,3.8920166666666667,0
0,0,1.0,3737.0,1,0,False,incorrect,True,0.0,1.0,0.0,1.0,6.0,0,Disgust,6.91355,0
1,0,2.0,711.0,1,0,False,correct,False,0.0,2.0,0.0,1.0,6.0,0,Disgust,6.91355,0
2,0,3.0,866.0,1,0,False,incorrect,True,0.0,3.0,0.0,1.0,6.0,0,Disgust,6.91355,0
3,0,4.0,601.0,1,0,False,correct,False,0.0,4.0,0.0,1.0,6.0,0,Disgust,6.91355,0
4,0,5.0,709.0,1,0,False,correct,False,0.0,5.0,0.0,1.0,6.0,0,Disgust,6.91355,0
5,0,6.0,956.0,1,0,False,incorrect,True,0.0,6.0,0.0,1.0,6.0,0,Disgust,6.91355,0
6,0,7.0,872.0,1,0,False,incorrect,True,0.0,7.0,0.0,1.0,6.0,0,Disgust,6.91355,0
7,0,8.0,778.0,1,0,False,incorrect,True,0.0,8.0,0.0,1.0,6.0,0,Disgust,6.91355,0
8,0,9.0,763.0,0,0,True,correct,True,1.0,9.0,0.0,1.0,6.0,0,Disgust,6.91355,0
9,0,10.0,964.0,0,0,True,correct,True,2.0,10.0,0.0,1.0,6.0,0,Disgust,6.91355,0
10,0,11.0,1185.0,0,0,True,correct,True,3.0,11.0,0.0,1.0,6.0,0,Disgust,6.91355,0
11,0,12.0,885.0,0,0,True,incorrect,False,4.0,12.0,0.0,1.0,6.0,0,Disgust,6.91355,0
12,0,13.0,806.0,0,0,True,incorrect,False,5.0,13.0,0.0,1.0,6.0,0,Disgust,6.91355,0
13,0,14.0,832.0,0,1,False,incorrect,True,0.0,1.0,1.0,1.0,6.0,0,Disgust,6.91355,0
14,0,15.0,613.0,1,1,True,incorrect,False,1.0,2.0,1.0,1.0,6.0,0,Disgust,6.91355,0
15,0,16.0,641.0,1,1,True,correct,True,2.0,3.0,1.0,1.0,6.0,0,Disgust,6.91355,0
16,0,17.0,998.0,1,1,True,correct,True,3.0,4.0,1.0,1.0,6.0,0,Disgust,6.91355,0
17,0,18.0,714.0,1,1,True,incorrect,False,4.0,5.0,1.0,1.0,6.0,0,Disgust,6.91355,0
18,0,19.0,850.0,1,1,True,correct,True,5.0,6.0,1.0,1.0,6.0,0,Disgust,6.91355,0
19,0,20.0,1013.0,1,0,False,correct,False,0.0,1.0,2.0,1.0,6.0,0,Disgust,6.91355,0
20,0,21.0,585.0,1,0,False,correct,False,0.0,2.0,2.0,1.0,6.0,0,Disgust,6.91355,0
21,0,22.0,641.0,1,0,False,incorrect,True,0.0,3.0,2.0,1.0,6.0,0,Disgust,6.91355,0
22,0,23.0,698.0,1,0,False,incorrect,True,0.0,4.0,2.0,1.0,6.0,0,Disgust,6.91355,0
23,0,24.0,595.0,1,0,False,incorrect,True,0.0,5.0,2.0,1.0,6.0,0,Disgust,6.91355,0
24,0,25.0,949.0,0,0,True,correct,True,1.0,6.0,2.0,1.0,6.0,0,Disgust,6.91355,0
25,0,26.0,910.0,0,0,True,correct,True,2.0,7.0,2.0,1.0,6.0,0,Disgust,6.91355,0
26,0,27.0,1049.0,0,0,True,correct,True,3.0,8.0,2.0,1.0,6.0,0,Disgust,6.91355,0
27,0,28.0,1070.0,0,0,True,correct,True,4.0,9.0,2.0,1.0,6.0,0,Disgust,6.91355,0
28,0,29.0,1081.0,0,0,True,correct,True,5.0,10.0,2.0,1.0,6.0,0,Disgust,6.91355,0
29,0,30.0,1447.0,0,1,False,incorrect,True,0.0,1.0,3.0,1.0,6.0,0,Disgust,6.91355,0
30,0,31.0,839.0,0,1,False,incorrect,True,0.0,2.0,3.0,1.0,6.0,0,Disgust,6.91355,0
31,0,32.0,756.0,0,1,False,incorrect,True,0.0,3.0,3.0,1.0,6.0,0,Disgust,6.91355,0
32,0,33.0,934.0,1,1,True,correct,True,1.0,4.0,3.0,1.0,6.0,0,Disgust,6.91355,0
33,0,34.0,466.0,1,1,True,correct,True,2.0,5.0,3.0,1.0,6.0,0,Disgust,6.91355,0
34,0,35.0,841.0,1,1,True,incorrect,False,3.0,6.0,3.0,1.0,6.0,0,Disgust,6.91355,0
35,0,36.0,958.0,1,1,True,correct,True,4.0,7.0,3.0,1.0,6.0,0,Disgust,6.91355,0
36,0,37.0,810.0,1,1,True,correct,True,5.0,8.0,3.0,1.0,6.0,0,Disgust,6.91355,0
37,0,38.0,597.0,1,0,False,incorrect,True,0.0,1.0,4.0,1.0,6.0,0,Disgust,6.91355,0
38,0,39.0,1003.0,1,0,False,correct,False,0.0,2.0,4.0,1.0,6.0,0,Disgust,6.91355,0
39,0,40.0,767.0,1,0,False,incorrect,True,0.0,3.0,4.0,1.0,6.0,0,Disgust,6.91355,0
40,0,41.0,794.0,1,0,False,incorrect,True,0.0,4.0,4.0,1.0,6.0,0,Disgust,6.91355,0
41,0,42.0,542.0,1,0,False,incorrect,True,0.0,5.0,4.0,1.0,6.0,0,Disgust,6.91355,0
42,0,43.0,958.0,0,0,True,correct,True,1.0,6.0,4.0,1.0,6.0,0,Disgust,6.91355,0
43,0,44.0,1462.0,0,0,True,correct,True,2.0,7.0,4.0,1.0,6.0,0,Disgust,6.91355,0
44,0,45.0,1411.0,0,0,True,correct,True,3.0,8.0,4.0,1.0,6.0,0,Disgust,6.91355,0
45,0,46.0,950.0,0,0,True,incorrect,False,4.0,9.0,4.0,1.0,6.0,0,Disgust,6.91355,0
46,0,47.0,889.0,0,0,True,correct,True,5.0,10.0,4.0,1.0,6.0,0,Disgust,6.91355,0
47,0,48.0,857.0,0,1,False,incorrect,True,0.0,1.0,5.0,1.0,6.0,0,Disgust,6.91355,0
48,0,49.0,755.0,0,1,False,incorrect,True,0.0,2.0,5.0,1.0,6.0,0,Disgust,6.91355,0
49,0,50.0,980.0,0,1,False,correct,False,0.0,3.0,5.0,1.0,6.0,0,Disgust,6.91355,0
50,0,51.0,1182.0,0,1,False,incorrect,True,0.0,4.0,5.0,1.0,6.0,0,Disgust,6.91355,0
51,0,52.0,757.0,0,1,False,incorrect,True,0.0,5.0,5.0,1.0,6.0,0,Disgust,6.91355,0
52,0,53.0,966.0,0,1,False,incorrect,True,0.0,6.0,5.0,1.0,6.0,0,Disgust,6.91355,0
53,0,54.0,665.0,1,1,True,correct,True,1.0,7.0,5.0,1.0,6.0,0,Disgust,6.91355,0
54,0,55.0,1401.0,0,1,False,incorrect,True,0.0,8.0,5.0,1.0,6.0,0,Disgust,6.91355,0
55,0,56.0,593.0,1,1,True,correct,True,1.0,9.0,5.0,1.0,6.0,0,Disgust,6.91355,0
56,0,57.0,606.0,1,1,True,correct,True,2.0,10.0,5.0,1.0,6.0,0,Disgust,6.91355,0
57,0,58.0,587.0,1,1,True,correct,True,3.0,11.0,5.0,1.0,6.0,0,Disgust,6.91355,0
58,0,59.0,641.0,1,1,True,correct,True,4.0,12.0,5.0,1.0,6.0,0,Disgust,6.91355,0
59,0,60.0,563.0,1,1,True,correct,True,5.0,13.0,5.0,1.0,6.0,0,Disgust,6.91355,0
